timestamp,accel_x,accel_y,accel_z,gyro_x,gyro_y,gyro_z,orig_time
2025-10-11 08:00:00,0.15,-0.22,0.9,4.72,6.33,0.19,00:00:00
2025-10-11 08:00:00,0.17,-0.21,1.09,0.4,6.22,0.12,00:00:00
2025-10-11 08:00:00,0.16,-0.2,0.91,4.59,6.28,0.06,00:00:01
2025-10-11 08:00:00,0.17,-0.21,1.11,-0.19,6.34,0.15,00:00:01
2025-10-11 08:00:00,0.14,-0.21,0.89,3.92,6.24,0.09,00:00:02
2025-10-11 08:00:00,0.16,-0.19,1.1,-1.68,6.28,0.06,00:00:02
2025-10-11 08:00:00,0.17,-0.2,0.91,3.52,6.3,0.03,00:00:03
2025-10-11 08:00:00,0.14,-0.18,1.1,-2.65,6.38,0.07,00:00:03
2025-10-11 08:00:00,0.13,-0.19,1.1,-3.11,6.35,0.09,00:00:04
2025-10-11 08:00:00,0.16,-0.22,0.89,2.89,6.38,0.16,00:00:04
2025-10-11 08:00:00,0.16,-0.2,0.9,2.11,6.31,0.19,00:00:05
2025-10-11 08:00:00,0.17,-0.18,1.08,-4.01,6.34,0.04,00:00:05
2025-10-11 08:00:01,0.16,-0.22,1.09,-4.72,6.37,0.01,00:00:06
2025-10-11 08:00:01,0.17,-0.19,0.92,0.43,6.32,0.13,00:00:06
2025-10-11 08:00:01,0.14,-0.2,0.89,0.18,6.24,0.18,00:00:07
2025-10-11 08:00:01,0.17,-0.19,1.06,-4.85,6.21,0.04,00:00:07
2025-10-11 08:00:01,0.16,-0.21,1.09,-4.61,6.35,0.07,00:00:08
2025-10-11 08:00:01,0.16,-0.2,0.92,-1.21,6.33,0.06,00:00:08
2025-10-11 08:00:01,0.17,-0.19,0.9,-1.92,6.36,0.18,00:00:09
2025-10-11 08:00:01,0.15,-0.21,1.05,-4.95,6.36,0.01,00:00:09
2025-10-11 08:00:01,0.14,-0.18,0.91,-3.13,6.34,0.18,00:00:10
2025-10-11 08:00:01,0.16,-0.19,1.08,-5.25,6.3,0.01,00:00:10
2025-10-11 08:00:01,0.14,-0.2,0.91,-3.7,6.32,0.16,00:00:11
2025-10-11 08:00:01,0.13,-0.21,1.06,-4.84,6.37,0.1,00:00:11
2025-10-11 08:00:02,0.17,-0.21,0.91,-4.53,6.29,0.12,00:00:12
2025-10-11 08:00:02,0.15,-0.19,1.04,-4.06,6.35,0.12,00:00:12
2025-10-11 08:00:02,0.16,-0.19,1.04,-2.85,6.35,0.14,00:00:13
2025-10-11 08:00:02,0.14,-0.19,0.93,-4.83,6.4,0.17,00:00:13
2025-10-11 08:00:02,0.14,-0.19,1.04,-1.98,6.28,0.02,00:00:14
2025-10-11 08:00:02,0.15,-0.2,0.93,-5.4,6.2,0.01,00:00:14
2025-10-11 08:00:02,0.17,-0.22,1.03,-1.57,6.22,0.07,00:00:15
2025-10-11 08:00:02,0.16,-0.21,0.91,-4.93,6.32,0.16,00:00:15
2025-10-11 08:00:02,0.17,-0.18,0.93,-4.41,6.23,0.07,00:00:16
2025-10-11 08:00:02,0.16,-0.21,1.03,0.02,6.32,0.07,00:00:16
2025-10-11 08:00:02,0.17,-0.19,1.03,1.11,6.33,0.12,00:00:17
2025-10-11 08:00:03,0.14,-0.18,0.95,-4.46,6.25,0.16,00:00:17
2025-10-11 08:00:03,0.16,-0.2,1.02,1.24,6.36,0.09,00:00:18
2025-10-11 08:00:03,0.17,-0.19,0.95,-3.56,6.34,0.0,00:00:18
2025-10-11 08:00:03,0.17,-0.2,1.02,2.91,6.22,0.03,00:00:19
2025-10-11 08:00:03,0.13,-0.22,0.93,-2.72,6.3,0.12,00:00:19
2025-10-11 08:00:03,0.14,-0.18,0.97,-2.06,6.2,0.03,00:00:20
2025-10-11 08:00:03,0.14,-0.22,1.02,3.22,6.2,0.03,00:00:20
2025-10-11 08:00:03,0.14,-0.21,1.01,4.13,6.37,0.19,00:00:21
2025-10-11 08:00:03,0.14,-0.21,0.97,-1.67,6.29,0.17,00:00:21
2025-10-11 08:00:03,0.13,-0.21,1.01,4.13,6.26,0.01,00:00:22
2025-10-11 08:00:03,0.17,-0.19,0.94,-0.28,6.39,0.03,00:00:22
2025-10-11 08:00:03,0.16,-0.19,1.01,4.94,6.22,0.0,00:00:23
2025-10-11 08:00:04,0.13,-0.19,0.97,0.55,6.4,0.1,00:00:23
2025-10-11 08:00:04,0.15,-0.21,0.99,1.2,6.22,0.01,00:00:24
2025-10-11 08:00:04,0.16,-0.21,1.0,4.64,6.22,0.1,00:00:24
2025-10-11 08:00:04,0.14,-0.18,0.95,2.75,6.39,0.16,00:00:25
2025-10-11 08:00:04,0.13,-0.18,1.01,4.8,6.21,0.14,00:00:25
2025-10-11 08:00:04,0.16,-0.2,0.98,2.96,6.23,0.07,00:00:26
2025-10-11 08:00:04,0.16,-0.18,1.0,4.63,6.3,0.15,00:00:26
2025-10-11 08:00:04,0.15,-0.2,0.97,3.54,6.26,0.04,00:00:27
2025-10-11 08:00:04,0.17,-0.22,1.0,4.53,6.23,0.12,00:00:27
2025-10-11 08:00:04,0.14,-0.19,0.99,3.02,6.26,0.18,00:00:28
2025-10-11 08:00:04,0.16,-0.22,0.97,4.3,6.37,0.0,00:00:28
2025-10-11 08:00:05,0.15,-0.21,1.0,4.73,6.3,0.07,00:00:29
2025-10-11 08:00:05,0.15,-0.18,0.96,2.43,6.31,0.2,00:00:29
2025-10-11 08:00:05,0.16,-0.22,0.96,1.32,6.21,0.04,00:00:30
2025-10-11 08:00:05,0.16,-0.21,1.0,5.19,6.36,0.15,00:00:30
2025-10-11 08:00:05,0.16,-0.21,0.96,0.9,6.25,0.03,00:00:31
2025-10-11 08:00:05,0.16,-0.22,1.01,4.94,6.38,0.06,00:00:31
2025-10-11 08:00:05,0.14,-0.2,1.02,5.18,6.26,0.09,00:00:32
2025-10-11 08:00:05,0.16,-0.2,1.02,4.7,6.26,0.11,00:00:33
2025-10-11 08:00:05,0.14,-0.2,0.96,-0.46,6.37,0.16,00:00:33
2025-10-11 08:00:05,0.14,-0.19,0.95,-0.74,6.34,0.13,00:00:34
2025-10-11 08:00:05,0.14,-0.19,1.0,3.68,6.36,0.11,00:00:34
2025-10-11 08:00:05,0.15,-0.18,0.93,-1.84,6.25,0.07,00:00:35
2025-10-11 08:00:06,0.14,-0.2,1.04,2.75,6.28,0.2,00:00:35
2025-10-11 08:00:06,0.15,-0.22,0.94,-3.18,6.38,0.1,00:00:36
2025-10-11 08:00:06,0.15,-0.21,1.02,2.17,6.34,0.18,00:00:36
2025-10-11 08:00:06,0.15,-0.21,0.94,-3.46,6.27,0.03,00:00:37
2025-10-11 08:00:06,0.14,-0.19,1.01,1.39,6.29,0.19,00:00:37
2025-10-11 08:00:06,0.14,-0.2,1.02,0.35,6.32,0.15,00:00:38
2025-10-11 08:00:06,0.15,-0.21,0.93,-4.4,6.3,0.17,00:00:38
2025-10-11 08:00:06,0.15,-0.21,0.93,-4.64,6.33,0.18,00:00:39
2025-10-11 08:00:06,0.15,-0.21,0.94,-5.13,6.27,0.16,00:00:40
2025-10-11 08:00:06,0.16,-0.22,1.06,-1.48,6.2,0.17,00:00:40
2025-10-11 08:00:06,0.14,-0.2,0.92,-5.27,6.23,0.0,00:00:41
2025-10-11 08:00:07,0.15,-0.21,1.05,-1.87,6.38,0.03,00:00:41
2025-10-11 08:00:07,0.15,-0.19,0.92,-4.33,6.36,0.17,00:00:42
2025-10-11 08:00:07,0.15,-0.18,1.06,-3.28,6.33,0.0,00:00:42
2025-10-11 08:00:07,0.16,-0.18,1.05,-3.56,6.22,0.14,00:00:43
2025-10-11 08:00:07,0.16,-0.21,0.93,-4.18,6.29,0.2,00:00:43
2025-10-11 08:00:07,0.13,-0.2,1.06,-4.38,6.29,0.11,00:00:44
2025-10-11 08:00:07,0.15,-0.2,0.91,-4.37,6.28,0.19,00:00:44
2025-10-11 08:00:07,0.15,-0.22,1.06,-4.44,6.23,0.06,00:00:45
2025-10-11 08:00:07,0.16,-0.21,0.92,-3.57,6.39,0.0,00:00:45
2025-10-11 08:00:07,0.17,-0.22,1.05,-4.7,6.39,0.03,00:00:46
2025-10-11 08:00:07,0.13,-0.21,0.93,-2.18,6.39,0.04,00:00:46
2025-10-11 08:00:07,0.15,-0.21,0.91,-1.54,6.28,0.03,00:00:47
2025-10-11 08:00:08,0.14,-0.19,1.06,-4.69,6.32,0.12,00:00:47
2025-10-11 08:00:08,0.15,-0.19,1.07,-4.37,6.23,0.19,00:00:48
2025-10-11 08:00:08,0.14,-0.21,0.93,-0.63,6.31,0.02,00:00:48
2025-10-11 08:00:08,0.15,-0.19,0.91,0.99,6.28,0.16,00:00:49
2025-10-11 08:00:08,0.14,-0.19,0.92,1.41,6.24,0.11,00:00:50
2025-10-11 08:00:08,0.15,-0.2,1.09,-3.86,6.24,0.18,00:00:50
2025-10-11 08:00:08,0.15,-0.19,1.1,-3.07,6.35,0.13,00:00:51
2025-10-11 08:00:08,0.15,-0.21,0.92,2.76,6.21,0.18,00:00:51
2025-10-11 08:00:08,0.16,-0.2,1.08,-2.19,6.23,0.15,00:00:52
2025-10-11 08:00:08,0.14,-0.21,0.88,3.57,6.23,0.14,00:00:52
2025-10-11 08:00:08,0.16,-0.2,0.92,4.17,6.23,0.01,00:00:53
2025-10-11 08:00:09,0.15,-0.22,1.11,-1.14,6.32,0.16,00:00:53
2025-10-11 08:00:09,0.14,-0.22,0.91,4.36,6.33,0.09,00:00:54
2025-10-11 08:00:09,0.16,-0.19,1.08,-0.03,6.29,0.14,00:00:54
2025-10-11 08:00:09,0.14,-0.18,0.89,4.77,6.3,0.05,00:00:55
2025-10-11 08:00:09,0.15,-0.22,1.09,0.53,6.23,0.11,00:00:55
2025-10-11 08:00:09,0.15,-0.19,0.89,4.65,6.36,0.1,00:00:56
2025-10-11 08:00:09,0.16,-0.18,1.11,1.56,6.22,0.06,00:00:56
2025-10-11 08:00:09,0.16,-0.19,0.9,5.38,6.31,0.11,00:00:57
2025-10-11 08:00:09,0.17,-0.18,1.09,2.88,6.36,0.07,00:00:57
2025-10-11 08:00:09,0.16,-0.21,1.12,3.7,6.39,0.1,00:00:58
2025-10-11 08:00:09,0.14,-0.2,0.92,4.82,6.25,0.11,00:00:58
2025-10-11 08:00:09,0.14,-0.19,1.11,4.65,6.22,0.08,00:00:59
2025-10-11 08:00:10,0.17,-0.2,0.9,3.88,6.31,0.16,00:00:59
2025-10-11 08:00:10,0.14,-0.22,1.09,4.45,6.24,0.07,00:01:00
2025-10-11 08:00:10,0.15,-0.21,0.89,3.31,6.35,0.09,00:01:00
2025-10-11 08:00:10,0.15,-0.22,0.92,3.04,6.4,0.1,00:01:01
2025-10-11 08:00:10,0.15,-0.19,1.11,4.79,6.25,0.11,00:01:01
2025-10-11 08:00:10,0.16,-0.19,1.09,5.16,6.27,0.19,00:01:02
2025-10-11 08:00:10,0.13,-0.2,0.92,1.91,6.24,0.08,00:01:02
2025-10-11 08:00:10,0.13,-0.19,0.92,1.19,6.2,0.18,00:01:03
2025-10-11 08:00:10,0.14,-0.18,1.09,5.28,6.34,0.02,00:01:03
2025-10-11 08:00:10,0.17,-0.2,1.11,4.73,6.37,0.11,00:01:04
2025-10-11 08:00:10,0.15,-0.19,0.89,0.25,6.34,0.16,00:01:04
2025-10-11 08:00:11,0.13,-0.22,0.91,-1.49,6.27,0.12,00:01:05
2025-10-11 08:00:11,0.16,-0.2,1.08,3.98,6.29,0.17,00:01:05
2025-10-11 08:00:11,0.16,-0.19,0.92,-1.73,6.35,0.15,00:01:06
2025-10-11 08:00:11,0.16,-0.2,1.11,3.33,6.33,0.09,00:01:06
2025-10-11 08:00:11,0.16,-0.19,1.08,2.82,6.31,0.03,00:01:07
2025-10-11 08:00:11,0.14,-0.2,0.91,-3.1,6.31,0.09,00:01:07
2025-10-11 08:00:11,0.14,-0.18,1.08,1.8,6.24,0.11,00:01:08
2025-10-11 08:00:11,0.17,-0.22,0.91,-3.96,6.29,0.15,00:01:08
2025-10-11 08:00:11,0.15,-0.19,0.92,-3.87,6.28,0.14,00:01:09
2025-10-11 08:00:11,0.14,-0.2,1.11,1.16,6.3,0.13,00:01:09
2025-10-11 08:00:11,0.17,-0.2,0.94,-5.0,6.27,0.18,00:01:10
2025-10-11 08:00:11,0.16,-0.21,1.1,-0.24,6.26,0.15,00:01:10
2025-10-11 08:00:12,0.16,-0.2,0.91,-4.74,6.27,0.13,00:01:11
2025-10-11 08:00:12,0.14,-0.18,1.07,-1.44,6.24,0.05,00:01:11
2025-10-11 08:00:12,0.13,-0.2,0.92,-5.07,6.4,0.15,00:01:12
2025-10-11 08:00:12,0.14,-0.21,1.11,-2.26,6.23,0.04,00:01:12
2025-10-11 08:00:12,0.17,-0.2,0.93,-4.38,6.29,0.05,00:01:13
2025-10-11 08:00:12,0.15,-0.21,1.09,-3.43,6.32,0.16,00:01:13
2025-10-11 08:00:12,0.16,-0.22,1.08,-3.73,6.28,0.04,00:01:14
2025-10-11 08:00:12,0.13,-0.19,0.94,-4.93,6.26,0.11,00:01:14
2025-10-11 08:00:12,0.14,-0.2,0.95,-4.33,6.28,0.03,00:01:15
2025-10-11 08:00:12,0.15,-0.21,1.07,-4.75,6.25,0.09,00:01:15
2025-10-11 08:00:12,0.13,-0.21,1.06,-4.88,6.35,0.05,00:01:16
2025-10-11 08:00:13,0.16,-0.19,0.95,-3.49,6.36,0.17,00:01:16
2025-10-11 08:00:13,0.14,-0.2,0.97,-2.56,6.34,0.2,00:01:17
2025-10-11 08:00:13,0.15,-0.2,1.08,-5.34,6.24,0.1,00:01:17
2025-10-11 08:00:13,0.13,-0.19,0.96,-1.83,6.33,0.17,00:01:18
2025-10-11 08:00:13,0.16,-0.18,1.09,-4.89,6.39,0.12,00:01:18
2025-10-11 08:00:13,0.16,-0.21,0.96,-0.26,6.37,0.16,00:01:19
2025-10-11 08:00:13,0.15,-0.2,1.07,-5.26,6.35,0.16,00:01:19
2025-10-11 08:00:13,0.15,-0.2,0.97,0.87,6.28,0.19,00:01:20
2025-10-11 08:00:13,0.14,-0.21,1.07,-4.66,6.34,0.15,00:01:20
2025-10-11 08:00:13,0.14,-0.18,1.07,-3.78,6.26,0.16,00:01:21
2025-10-11 08:00:13,0.16,-0.2,0.98,1.83,6.27,0.05,00:01:21
2025-10-11 08:00:13,0.14,-0.18,0.98,1.97,6.39,0.12,00:01:22
2025-10-11 08:00:14,0.15,-0.19,1.04,-2.81,6.39,0.08,00:01:22
2025-10-11 08:00:14,0.17,-0.22,0.98,3.51,6.24,0.05,00:01:23
2025-10-11 08:00:14,0.14,-0.21,1.03,-2.54,6.34,0.05,00:01:23
2025-10-11 08:00:14,0.17,-0.19,0.98,4.01,6.32,0.05,00:01:24
2025-10-11 08:00:14,0.16,-0.19,1.06,-0.82,6.22,0.17,00:01:24
2025-10-11 08:00:14,0.14,-0.21,0.99,4.13,6.25,0.05,00:01:25
2025-10-11 08:00:14,0.14,-0.19,1.05,0.12,6.23,0.0,00:01:25
2025-10-11 08:00:14,0.15,-0.19,1.0,4.71,6.36,0.15,00:01:26
2025-10-11 08:00:14,0.16,-0.18,1.03,1.06,6.39,0.03,00:01:26
2025-10-11 08:00:14,0.15,-0.2,0.99,5.4,6.26,0.14,00:01:27
2025-10-11 08:00:14,0.16,-0.21,1.01,1.39,6.25,0.03,00:01:27
2025-10-11 08:00:15,0.14,-0.19,0.99,5.27,6.25,0.05,00:01:28
2025-10-11 08:00:15,0.13,-0.22,1.04,2.5,6.2,0.13,00:01:28
2025-10-11 08:00:15,0.17,-0.21,1.02,4.66,6.26,0.07,00:01:29
2025-10-11 08:00:15,0.16,-0.19,1.04,3.41,6.25,0.04,00:01:29
2025-10-11 08:00:15,0.15,-0.2,1.0,4.09,6.38,0.19,00:01:30
2025-10-11 08:00:15,0.13,-0.2,1.02,4.43,6.25,0.14,00:01:30
2025-10-11 08:00:15,0.15,-0.2,0.99,4.75,6.29,0.11,00:01:31
2025-10-11 08:00:15,0.15,-0.21,1.02,4.11,6.35,0.05,00:01:31
2025-10-11 08:00:15,0.16,-0.2,1.02,4.58,6.38,0.14,00:01:32
2025-10-11 08:00:15,0.16,-0.2,1.01,3.38,6.34,0.19,00:01:32
2025-10-11 08:00:15,0.15,-0.21,1.0,4.72,6.29,0.07,00:01:33
2025-10-11 08:00:15,0.15,-0.19,1.02,2.56,6.38,0.18,00:01:33
2025-10-11 08:00:16,0.16,-0.19,1.0,4.91,6.37,0.01,00:01:34
2025-10-11 08:00:16,0.15,-0.19,1.03,1.33,6.23,0.06,00:01:34
2025-10-11 08:00:16,0.16,-0.2,1.05,0.31,6.26,0.03,00:01:35
2025-10-11 08:00:16,0.14,-0.22,0.99,4.31,6.34,0.07,00:01:35
2025-10-11 08:00:16,0.15,-0.19,1.03,-1.01,6.35,0.0,00:01:36
2025-10-11 08:00:16,0.14,-0.2,1.0,3.81,6.37,0.19,00:01:36
2025-10-11 08:00:16,0.16,-0.21,1.06,-2.04,6.3,0.12,00:01:37
2025-10-11 08:00:16,0.13,-0.18,0.98,3.94,6.25,0.11,00:01:37
2025-10-11 08:00:16,0.14,-0.19,1.05,-2.46,6.25,0.08,00:01:38
2025-10-11 08:00:16,0.14,-0.21,0.98,2.67,6.26,0.03,00:01:38
2025-10-11 08:00:16,0.16,-0.22,1.04,-3.19,6.34,0.08,00:01:39
2025-10-11 08:00:17,0.16,-0.21,0.96,1.55,6.24,0.05,00:01:39
2025-10-11 08:00:17,0.15,-0.2,1.07,-4.04,6.31,0.03,00:01:40
2025-10-11 08:00:17,0.15,-0.19,0.98,1.05,6.2,0.09,00:01:40
2025-10-11 08:00:17,0.16,-0.21,0.98,0.14,6.2,0.01,00:01:41
2025-10-11 08:00:17,0.16,-0.19,1.06,-4.36,6.23,0.17,00:01:41
2025-10-11 08:00:17,0.13,-0.18,1.07,-5.03,6.22,0.16,00:01:42
2025-10-11 08:00:17,0.16,-0.19,0.94,-0.95,6.24,0.01,00:01:42
2025-10-11 08:00:17,0.16,-0.21,1.08,-4.88,6.21,0.09,00:01:43
2025-10-11 08:00:17,0.15,-0.22,0.96,-1.95,6.3,0.05,00:01:43
2025-10-11 08:00:17,0.16,-0.18,1.09,-4.98,6.27,0.19,00:01:44
2025-10-11 08:00:17,0.14,-0.19,0.93,-3.25,6.21,0.12,00:01:45
2025-10-11 08:00:17,0.15,-0.2,1.09,-4.75,6.31,0.02,00:01:45
2025-10-11 08:00:18,0.17,-0.21,0.92,-3.35,6.25,0.2,00:01:46
2025-10-11 08:00:18,0.16,-0.19,1.08,-4.06,6.21,0.13,00:01:46
2025-10-11 08:00:18,0.15,-0.2,1.08,-3.66,6.34,0.06,00:01:47
2025-10-11 08:00:18,0.17,-0.2,0.94,-4.06,6.25,0.02,00:01:47
2025-10-11 08:00:18,0.15,-0.2,0.92,-4.51,6.36,0.19,00:01:48
2025-10-11 08:00:18,0.14,-0.19,1.09,-2.69,6.31,0.14,00:01:48
2025-10-11 08:00:18,0.17,-0.18,0.92,-4.74,6.33,0.12,00:01:49
2025-10-11 08:00:18,0.16,-0.21,1.08,-1.27,6.28,0.13,00:01:49
2025-10-11 08:00:18,0.17,-0.22,0.93,-4.88,6.33,0.15,00:01:50
2025-10-11 08:00:18,0.14,-0.18,1.08,-0.51,6.39,0.15,00:01:50
2025-10-11 08:00:18,0.13,-0.19,1.1,-0.09,6.27,0.16,00:01:51
2025-10-11 08:00:19,0.13,-0.2,0.92,-5.15,6.28,0.08,00:01:51
2025-10-11 08:00:19,0.16,-0.22,1.11,1.75,6.3,0.15,00:01:52
2025-10-11 08:00:19,0.15,-0.19,0.93,-3.96,6.2,0.1,00:01:52
2025-10-11 08:00:19,0.16,-0.21,0.93,-4.2,6.27,0.06,00:01:53
2025-10-11 08:00:19,0.15,-0.19,1.11,2.02,6.38,0.01,00:01:53
2025-10-11 08:00:19,0.14,-0.22,1.09,3.1,6.31,0.14,00:01:54
2025-10-11 08:00:19,0.16,-0.19,0.92,-3.01,6.26,0.06,00:01:54
2025-10-11 08:00:19,0.17,-0.18,0.9,-2.12,6.25,0.1,00:01:55
2025-10-11 08:00:19,0.15,-0.21,1.09,3.5,6.24,0.15,00:01:55
2025-10-11 08:00:19,0.15,-0.2,1.09,4.74,6.28,0.08,00:01:56
2025-10-11 08:00:19,0.17,-0.2,0.91,-1.1,6.31,0.11,00:01:56
2025-10-11 08:00:19,0.17,-0.19,0.91,-0.47,6.36,0.12,00:01:57
2025-10-11 08:00:20,0.17,-0.2,1.12,4.6,6.32,0.11,00:01:57
2025-10-11 08:00:20,0.14,-0.19,0.92,0.88,6.23,0.17,00:01:58
2025-10-11 08:00:20,0.14,-0.2,1.11,4.57,6.37,0.1,00:01:58
2025-10-11 08:00:20,0.16,-0.2,0.91,1.5,6.28,0.03,00:01:59
2025-10-11 08:00:20,0.14,-0.2,1.11,5.04,6.2,0.02,00:01:59
2025-10-11 08:00:20,0.15,-0.2,0.91,2.27,6.24,0.03,00:02:00
2025-10-11 08:00:20,0.14,-0.19,1.09,4.43,6.29,0.19,00:02:00
2025-10-11 08:00:20,0.17,-0.21,1.09,4.35,6.23,0.12,00:02:01
2025-10-11 08:00:20,0.15,-0.2,0.9,3.08,6.33,0.2,00:02:01
2025-10-11 08:00:20,0.15,-0.19,0.9,4.32,6.23,0.18,00:02:02
2025-10-11 08:00:20,0.15,-0.19,1.09,3.88,6.22,0.07,00:02:02
2025-10-11 08:00:21,0.17,-0.21,1.08,2.84,6.35,0.08,00:02:03
2025-10-11 08:00:21,0.13,-0.2,0.89,4.12,6.22,0.14,00:02:03
2025-10-11 08:00:21,0.14,-0.2,0.91,4.35,6.23,0.07,00:02:04
2025-10-11 08:00:21,0.17,-0.21,1.09,1.76,6.39,0.05,00:02:04
2025-10-11 08:00:21,0.17,-0.2,0.9,4.61,6.22,0.07,00:02:05
2025-10-11 08:00:21,0.13,-0.22,1.1,0.92,6.3,0.02,00:02:05
2025-10-11 08:00:21,0.15,-0.2,1.09,0.69,6.22,0.02,00:02:06
2025-10-11 08:00:21,0.17,-0.18,0.89,4.85,6.33,0.1,00:02:06
2025-10-11 08:00:21,0.15,-0.2,1.11,-0.6,6.27,0.19,00:02:07
2025-10-11 08:00:21,0.14,-0.2,0.89,5.17,6.22,0.16,00:02:07
2025-10-11 08:00:21,0.13,-0.19,1.1,-1.48,6.3,0.02,00:02:08
2025-10-11 08:00:21,0.16,-0.2,0.91,4.3,6.29,0.07,00:02:08
2025-10-11 08:00:22,0.16,-0.22,0.91,3.62,6.25,0.17,00:02:09
2025-10-11 08:00:22,0.14,-0.2,1.1,-2.45,6.26,0.1,00:02:09
2025-10-11 08:00:22,0.17,-0.2,1.08,-3.27,6.37,0.01,00:02:10
2025-10-11 08:00:22,0.16,-0.21,0.91,2.83,6.31,0.06,00:02:10
2025-10-11 08:00:22,0.14,-0.19,0.92,2.37,6.23,0.07,00:02:11
2025-10-11 08:00:22,0.17,-0.19,1.08,-3.6,6.26,0.11,00:02:11
2025-10-11 08:00:22,0.14,-0.2,1.1,-4.69,6.34,0.13,00:02:12
2025-10-11 08:00:22,0.17,-0.2,0.89,0.61,6.38,0.11,00:02:12
2025-10-11 08:00:22,0.14,-0.22,0.91,0.39,6.24,0.05,00:02:13
2025-10-11 08:00:22,0.16,-0.2,1.08,-4.48,6.26,0.2,00:02:13
2025-10-11 08:00:22,0.16,-0.22,1.08,-4.62,6.28,0.1,00:02:14
2025-10-11 08:00:23,0.13,-0.22,0.9,-1.47,6.23,0.16,00:02:14
2025-10-11 08:00:23,0.16,-0.22,0.92,-1.88,6.32,0.04,00:02:15
2025-10-11 08:00:23,0.15,-0.21,1.08,-4.61,6.21,0.04,00:02:15
2025-10-11 08:00:23,0.14,-0.21,1.06,-4.69,6.3,0.19,00:02:16
2025-10-11 08:00:23,0.14,-0.18,0.9,-2.73,6.33,0.1,00:02:16
2025-10-11 08:00:23,0.15,-0.19,0.92,-3.76,6.23,0.12,00:02:17
2025-10-11 08:00:23,0.16,-0.21,1.06,-3.99,6.32,0.14,00:02:17
2025-10-11 08:00:23,0.13,-0.21,0.94,-4.37,6.2,0.04,00:02:18
2025-10-11 08:00:23,0.15,-0.2,1.07,-3.99,6.38,0.03,00:02:18
2025-10-11 08:00:23,0.16,-0.21,0.92,-4.73,6.38,0.16,00:02:19
2025-10-11 08:00:23,0.14,-0.22,1.03,-2.6,6.27,0.19,00:02:19
2025-10-11 08:00:23,0.17,-0.21,0.92,-5.43,6.38,0.02,00:02:20
2025-10-11 08:00:24,0.14,-0.21,1.05,-1.57,6.3,0.17,00:02:20
2025-10-11 08:00:24,0.13,-0.21,0.92,-5.0,6.26,0.13,00:02:21
2025-10-11 08:00:24,0.17,-0.22,1.05,-0.95,6.37,0.15,00:02:21
2025-10-11 08:00:24,0.14,-0.2,1.05,-0.21,6.23,0.09,00:02:22
2025-10-11 08:00:24,0.16,-0.18,0.95,-4.66,6.23,0.15,00:02:22
2025-10-11 08:00:24,0.17,-0.21,1.02,1.07,6.24,0.14,00:02:23
2025-10-11 08:00:24,0.15,-0.22,0.94,-4.45,6.22,0.09,00:02:23
2025-10-11 08:00:24,0.16,-0.21,0.93,-4.07,6.29,0.13,00:02:24
2025-10-11 08:00:24,0.15,-0.22,1.01,2.43,6.38,0.14,00:02:24
2025-10-11 08:00:24,0.15,-0.19,1.02,2.73,6.33,0.15,00:02:25
2025-10-11 08:00:24,0.15,-0.2,0.94,-3.31,6.27,0.12,00:02:25
2025-10-11 08:00:25,0.13,-0.2,0.96,-2.36,6.35,0.14,00:02:26
2025-10-11 08:00:25,0.15,-0.19,1.04,3.81,6.22,0.14,00:02:26
2025-10-11 08:00:25,0.13,-0.19,1.0,3.9,6.36,0.05,00:02:27
2025-10-11 08:00:25,0.13,-0.18,0.95,-2.06,6.26,0.2,00:02:27
2025-10-11 08:00:25,0.17,-0.21,1.02,4.64,6.2,0.04,00:02:28
2025-10-11 08:00:25,0.13,-0.19,0.95,-0.77,6.37,0.17,00:02:28
2025-10-11 08:00:25,0.16,-0.19,1.0,5.28,6.25,0.12,00:02:29
2025-10-11 08:00:25,0.14,-0.21,0.97,0.5,6.35,0.1,00:02:29
2025-10-11 08:00:25,0.15,-0.18,1.0,5.33,6.21,0.17,00:02:30
2025-10-11 08:00:25,0.14,-0.2,0.96,1.69,6.27,0.05,00:02:30
2025-10-11 08:00:25,0.16,-0.2,0.97,4.42,6.24,0.1,00:02:31
2025-10-11 08:00:25,0.14,-0.2,0.97,2.44,6.23,0.07,00:02:31
2025-10-11 08:00:26,0.14,-0.22,0.98,4.44,6.38,0.18,00:02:32
2025-10-11 08:00:26,0.14,-0.2,0.96,3.04,6.38,0.06,00:02:32
2025-10-11 08:00:26,0.14,-0.21,0.97,3.84,6.24,0.0,00:02:33
2025-10-11 08:00:26,0.14,-0.2,1.0,3.84,6.32,0.15,00:02:33
2025-10-11 08:00:26,0.15,-0.19,0.98,3.99,6.38,0.17,00:02:34
2025-10-11 08:00:26,0.16,-0.18,0.98,2.89,6.33,0.16,00:02:34
2025-10-11 08:00:26,0.16,-0.2,0.97,4.68,6.38,0.06,00:02:35
2025-10-11 08:00:26,0.14,-0.22,0.97,2.92,6.29,0.12,00:02:35
2025-10-11 08:00:26,0.16,-0.22,0.99,5.2,6.28,0.11,00:02:36
2025-10-11 08:00:26,0.13,-0.21,0.95,1.86,6.23,0.05,00:02:36
2025-10-11 08:00:26,0.16,-0.2,1.01,4.75,6.23,0.18,00:02:37
2025-10-11 08:00:27,0.14,-0.18,0.96,0.6,6.31,0.06,00:02:37
2025-10-11 08:00:27,0.15,-0.22,1.0,4.99,6.39,0.19,00:02:38
2025-10-11 08:00:27,0.13,-0.21,0.97,-0.36,6.34,0.02,00:02:38
2025-10-11 08:00:27,0.16,-0.2,0.97,-1.36,6.28,0.0,00:02:39
2025-10-11 08:00:27,0.13,-0.2,1.03,4.04,6.23,0.19,00:02:39
2025-10-11 08:00:27,0.14,-0.2,0.97,-2.74,6.3,0.13,00:02:40
2025-10-11 08:00:27,0.17,-0.21,1.02,4.07,6.21,0.18,00:02:40
2025-10-11 08:00:27,0.14,-0.22,1.01,2.76,6.22,0.09,00:02:41
2025-10-11 08:00:27,0.14,-0.18,0.96,-3.16,6.37,0.19,00:02:41
2025-10-11 08:00:27,0.15,-0.21,1.05,1.79,6.3,0.17,00:02:42
2025-10-11 08:00:27,0.15,-0.21,0.95,-4.35,6.39,0.05,00:02:42
2025-10-11 08:00:27,0.13,-0.2,1.03,1.07,6.26,0.08,00:02:43
2025-10-11 08:00:28,0.16,-0.19,1.05,-0.04,6.25,0.06,00:02:44
2025-10-11 08:00:28,0.15,-0.21,0.93,-4.15,6.26,0.07,00:02:44
2025-10-11 08:00:28,0.17,-0.21,1.05,-0.52,6.33,0.1,00:02:45
2025-10-11 08:00:28,0.13,-0.18,0.95,-5.17,6.3,0.01,00:02:45
2025-10-11 08:00:28,0.17,-0.18,0.92,-4.95,6.23,0.04,00:02:46
2025-10-11 08:00:28,0.13,-0.2,1.03,-1.41,6.24,0.02,00:02:46
2025-10-11 08:00:28,0.17,-0.22,0.92,-5.13,6.31,0.17,00:02:47
2025-10-11 08:00:28,0.14,-0.19,1.06,-2.38,6.3,0.13,00:02:47
2025-10-11 08:00:28,0.14,-0.19,1.04,-3.71,6.24,0.17,00:02:48
2025-10-11 08:00:28,0.15,-0.21,0.93,-4.74,6.32,0.04,00:02:48
2025-10-11 08:00:28,0.15,-0.21,0.92,-3.78,6.32,0.02,00:02:49
2025-10-11 08:00:29,0.17,-0.21,1.07,-4.33,6.37,0.01,00:02:49
2025-10-11 08:00:29,0.14,-0.18,1.08,-4.83,6.22,0.11,00:02:50
2025-10-11 08:00:29,0.17,-0.2,0.93,-3.94,6.26,0.04,00:02:50
2025-10-11 08:00:29,0.16,-0.19,1.07,-4.93,6.32,0.19,00:02:51
2025-10-11 08:00:29,0.15,-0.19,0.93,-3.37,6.36,0.13,00:02:51
2025-10-11 08:00:29,0.16,-0.21,1.09,-5.12,6.28,0.01,00:02:52
2025-10-11 08:00:29,0.14,-0.19,0.93,-1.63,6.3,0.14,00:02:52
2025-10-11 08:00:29,0.15,-0.21,1.08,-4.52,6.39,0.13,00:02:53
2025-10-11 08:00:29,0.14,-0.2,0.89,-1.29,6.34,0.06,00:02:53
2025-10-11 08:00:29,0.16,-0.19,0.9,-0.06,6.21,0.05,00:02:54
2025-10-11 08:00:29,0.16,-0.18,1.09,-4.3,6.32,0.12,00:02:54
2025-10-11 08:00:29,0.16,-0.2,1.08,-3.75,6.35,0.1,00:02:55
2025-10-11 08:00:30,0.14,-0.19,0.92,1.14,6.29,0.16,00:02:55
2025-10-11 08:00:30,0.17,-0.19,1.1,-3.54,6.31,0.06,00:02:56
2025-10-11 08:00:30,0.16,-0.19,0.89,1.42,6.24,0.12,00:02:56
2025-10-11 08:00:30,0.14,-0.19,0.92,2.33,6.24,0.15,00:02:57
2025-10-11 08:00:30,0.15,-0.19,1.07,-2.42,6.4,0.15,00:02:57
2025-10-11 08:00:30,0.15,-0.22,0.9,3.42,6.23,0.17,00:02:58
2025-10-11 08:00:30,0.17,-0.19,1.11,-1.39,6.39,0.05,00:02:58
2025-10-11 08:00:30,0.15,-0.19,1.1,-1.15,6.34,0.18,00:02:59
2025-10-11 08:00:30,0.13,-0.22,0.9,4.41,6.26,0.06,00:02:59
2025-10-11 08:00:30,0.17,-0.21,1.08,0.34,6.32,0.01,00:03:00
2025-10-11 08:00:30,0.16,-0.2,0.91,4.45,6.32,0.01,00:03:00
2025-10-11 08:00:31,0.13,-0.2,1.1,1.64,6.34,0.14,00:03:01
2025-10-11 08:00:31,0.13,-0.19,0.91,4.8,6.34,0.17,00:03:01
2025-10-11 08:00:31,0.15,-0.2,1.1,2.06,6.22,0.01,00:03:02
2025-10-11 08:00:31,0.17,-0.2,0.89,5.39,6.31,0.11,00:03:02
2025-10-11 08:00:31,0.14,-0.18,0.9,4.93,6.4,0.03,00:03:03
2025-10-11 08:00:31,0.14,-0.21,1.11,2.95,6.31,0.12,00:03:03
2025-10-11 08:00:31,0.14,-0.2,0.92,4.5,6.34,0.02,00:03:04
2025-10-11 08:00:31,0.14,-0.19,1.1,4.15,6.32,0.12,00:03:04
2025-10-11 08:00:31,0.17,-0.21,0.91,4.3,6.25,0.06,00:03:05
2025-10-11 08:00:31,0.14,-0.19,1.11,4.54,6.3,0.09,00:03:05
2025-10-11 08:00:31,0.13,-0.19,0.91,3.5,6.27,0.19,00:03:06
2025-10-11 08:00:31,0.14,-0.19,1.09,5.07,6.22,0.05,00:03:06
2025-10-11 08:00:32,0.15,-0.21,1.12,5.03,6.23,0.03,00:03:07
2025-10-11 08:00:32,0.14,-0.21,0.89,2.31,6.28,0.04,00:03:07
2025-10-11 08:00:32,0.13,-0.2,0.92,1.41,6.38,0.15,00:03:08
2025-10-11 08:00:32,0.14,-0.2,1.11,4.74,6.32,0.15,00:03:08
2025-10-11 08:00:32,0.16,-0.2,1.11,4.83,6.25,0.1,00:03:09
2025-10-11 08:00:32,0.17,-0.2,0.89,1.15,6.3,0.18,00:03:09
2025-10-11 08:00:32,0.15,-0.21,0.92,-0.75,6.28,0.14,00:03:10
2025-10-11 08:00:32,0.17,-0.18,1.09,4.58,6.28,0.04,00:03:10
2025-10-11 08:00:32,0.13,-0.18,0.92,-1.15,6.23,0.12,00:03:11
2025-10-11 08:00:32,0.16,-0.18,1.11,4.06,6.32,0.03,00:03:11
2025-10-11 08:00:32,0.15,-0.2,0.89,-2.29,6.3,0.03,00:03:12
2025-10-11 08:00:32,0.16,-0.19,1.09,3.24,6.39,0.14,00:03:12
2025-10-11 08:00:33,0.13,-0.19,0.93,-3.12,6.27,0.11,00:03:13
2025-10-11 08:00:33,0.16,-0.22,1.11,2.35,6.35,0.13,00:03:13
2025-10-11 08:00:33,0.15,-0.2,0.9,-3.45,6.29,0.19,00:03:14
2025-10-11 08:00:33,0.16,-0.22,1.08,1.05,6.39,0.12,00:03:14
2025-10-11 08:00:33,0.15,-0.21,0.92,-4.13,6.22,0.13,00:03:15
2025-10-11 08:00:33,0.16,-0.21,1.09,0.28,6.37,0.03,00:03:15
2025-10-11 08:00:33,0.16,-0.21,0.94,-4.4,6.21,0.09,00:03:16
2025-10-11 08:00:33,0.16,-0.21,1.08,-0.96,6.21,0.14,00:03:16
2025-10-11 08:00:33,0.15,-0.2,0.92,-4.75,6.38,0.11,00:03:17
2025-10-11 08:00:33,0.14,-0.21,1.11,-1.36,6.29,0.11,00:03:17
2025-10-11 08:00:33,0.17,-0.22,1.09,-2.59,6.3,0.19,00:03:18
2025-10-11 08:00:34,0.16,-0.22,0.92,-5.19,6.24,0.07,00:03:18
2025-10-11 08:00:34,0.15,-0.19,1.1,-3.02,6.32,0.05,00:03:19
2025-10-11 08:00:34,0.15,-0.19,0.92,-4.62,6.38,0.15,00:03:19
2025-10-11 08:00:34,0.15,-0.22,1.08,-4.19,6.33,0.11,00:03:20
2025-10-11 08:00:34,0.15,-0.2,0.93,-4.44,6.21,0.09,00:03:20
2025-10-11 08:00:34,0.14,-0.22,1.07,-4.89,6.31,0.15,00:03:21
2025-10-11 08:00:34,0.15,-0.19,0.96,-3.77,6.39,0.04,00:03:21
2025-10-11 08:00:34,0.17,-0.21,1.09,-4.79,6.36,0.02,00:03:22
2025-10-11 08:00:34,0.15,-0.19,0.94,-3.54,6.22,0.19,00:03:22
2025-10-11 08:00:34,0.13,-0.2,0.95,-2.65,6.33,0.18,00:03:23
2025-10-11 08:00:34,0.17,-0.19,1.08,-5.03,6.38,0.16,00:03:23
2025-10-11 08:00:34,0.15,-0.2,0.94,-0.93,6.31,0.06,00:03:24
2025-10-11 08:00:35,0.16,-0.2,1.07,-5.08,6.27,0.11,00:03:24
2025-10-11 08:00:35,0.14,-0.21,0.96,-0.46,6.26,0.14,00:03:25
2025-10-11 08:00:35,0.17,-0.19,1.05,-5.03,6.23,0.18,00:03:25
2025-10-11 08:00:35,0.16,-0.21,0.98,1.07,6.31,0.14,00:03:26
2025-10-11 08:00:35,0.15,-0.22,1.08,-4.57,6.27,0.19,00:03:26
2025-10-11 08:00:35,0.15,-0.21,0.99,2.12,6.25,0.12,00:03:27
2025-10-11 08:00:35,0.17,-0.18,1.06,-3.98,6.29,0.13,00:03:27
2025-10-11 08:00:35,0.14,-0.2,0.99,2.32,6.38,0.11,00:03:28
2025-10-11 08:00:35,0.15,-0.2,1.06,-2.87,6.38,0.12,00:03:28
2025-10-11 08:00:35,0.15,-0.19,0.99,3.64,6.21,0.0,00:03:29
2025-10-11 08:00:35,0.14,-0.2,1.06,-1.51,6.34,0.12,00:03:29
2025-10-11 08:00:36,0.16,-0.19,0.97,4.46,6.24,0.15,00:03:30
2025-10-11 08:00:36,0.14,-0.2,1.05,-0.64,6.2,0.15,00:03:30
2025-10-11 08:00:36,0.16,-0.21,1.02,-0.06,6.27,0.15,00:03:31
2025-10-11 08:00:36,0.16,-0.22,0.98,4.89,6.21,0.06,00:03:31
2025-10-11 08:00:36,0.17,-0.18,1.04,0.94,6.28,0.03,00:03:32
2025-10-11 08:00:36,0.16,-0.22,1.01,4.52,6.31,0.03,00:03:32
2025-10-11 08:00:36,0.14,-0.19,1.03,2.39,6.39,0.15,00:03:33
2025-10-11 08:00:36,0.13,-0.22,0.99,4.92,6.23,0.05,00:03:33
2025-10-11 08:00:36,0.16,-0.18,1.0,4.9,6.26,0.19,00:03:34
2025-10-11 08:00:36,0.16,-0.19,1.01,2.71,6.37,0.06,00:03:34
2025-10-11 08:00:36,0.17,-0.2,1.02,4.81,6.33,0.03,00:03:35
2025-10-11 08:00:36,0.14,-0.2,1.01,3.44,6.26,0.03,00:03:35
2025-10-11 08:00:37,0.16,-0.22,1.01,3.98,6.22,0.13,00:03:36
2025-10-11 08:00:37,0.16,-0.19,1.01,4.45,6.24,0.05,00:03:36
2025-10-11 08:00:37,0.13,-0.18,1.04,3.16,6.27,0.1,00:03:37
2025-10-11 08:00:37,0.16,-0.19,1.03,4.67,6.25,0.09,00:03:37
2025-10-11 08:00:37,0.14,-0.2,1.03,3.07,6.37,0.07,00:03:38
2025-10-11 08:00:37,0.13,-0.19,1.02,5.35,6.36,0.15,00:03:38
2025-10-11 08:00:37,0.14,-0.2,1.04,2.13,6.33,0.02,00:03:39
2025-10-11 08:00:37,0.16,-0.21,0.98,5.26,6.34,0.19,00:03:39
2025-10-11 08:00:37,0.14,-0.22,1.03,0.74,6.22,0.08,00:03:40
2025-10-11 08:00:37,0.17,-0.2,1.01,4.67,6.32,0.12,00:03:40
2025-10-11 08:00:37,0.17,-0.21,0.97,4.38,6.29,0.1,00:03:41
2025-10-11 08:00:38,0.17,-0.21,1.03,0.03,6.33,0.17,00:03:41
2025-10-11 08:00:38,0.13,-0.19,1.05,-1.18,6.34,0.0,00:03:42
2025-10-11 08:00:38,0.16,-0.19,0.99,4.01,6.35,0.04,00:03:42
2025-10-11 08:00:38,0.13,-0.2,1.0,2.78,6.36,0.15,00:03:43
2025-10-11 08:00:38,0.17,-0.18,1.04,-2.05,6.27,0.17,00:03:43
2025-10-11 08:00:38,0.15,-0.2,1.03,-3.42,6.34,0.17,00:03:44
2025-10-11 08:00:38,0.13,-0.22,0.99,2.44,6.24,0.06,00:03:44
2025-10-11 08:00:38,0.14,-0.2,0.97,1.63,6.38,0.13,00:03:45
2025-10-11 08:00:38,0.15,-0.19,1.07,-3.75,6.37,0.08,00:03:45
2025-10-11 08:00:38,0.16,-0.19,1.05,-4.53,6.34,0.13,00:03:46
2025-10-11 08:00:38,0.15,-0.2,0.96,0.9,6.33,0.06,00:03:46
2025-10-11 08:00:38,0.16,-0.18,0.96,-0.19,6.28,0.12,00:03:47
2025-10-11 08:00:39,0.15,-0.2,1.08,-4.79,6.38,0.1,00:03:47
2025-10-11 08:00:39,0.16,-0.19,1.06,-4.55,6.22,0.18,00:03:48
2025-10-11 08:00:39,0.14,-0.18,0.94,-1.9,6.3,0.13,00:03:48
2025-10-11 08:00:39,0.13,-0.2,0.97,-2.8,6.33,0.02,00:03:49
2025-10-11 08:00:39,0.17,-0.19,1.09,-5.08,6.27,0.18,00:03:49
2025-10-11 08:00:39,0.15,-0.22,1.07,-4.6,6.35,0.03,00:03:50
2025-10-11 08:00:39,0.13,-0.22,0.96,-2.88,6.27,0.17,00:03:50
2025-10-11 08:00:39,0.16,-0.22,1.08,-4.59,6.24,0.05,00:03:51
2025-10-11 08:00:39,0.14,-0.19,0.95,-3.98,6.3,0.02,00:03:52
2025-10-11 08:00:39,0.16,-0.21,1.09,-4.24,6.33,0.03,00:03:52
2025-10-11 08:00:39,0.15,-0.19,0.93,-4.46,6.31,0.15,00:03:53
2025-10-11 08:00:40,0.15,-0.21,1.08,-3.52,6.22,0.11,00:03:53
2025-10-11 08:00:40,0.14,-0.18,0.94,-5.16,6.28,0.15,00:03:54
2025-10-11 08:00:40,0.16,-0.19,1.09,-2.27,6.29,0.06,00:03:54
2025-10-11 08:00:40,0.16,-0.22,1.1,-1.79,6.34,0.06,00:03:55
2025-10-11 08:00:40,0.14,-0.19,0.92,-5.43,6.25,0.01,00:03:55
2025-10-11 08:00:40,0.17,-0.19,1.1,-0.06,6.29,0.18,00:03:56
2025-10-11 08:00:40,0.14,-0.21,0.94,-5.32,6.33,0.03,00:03:56
2025-10-11 08:00:40,0.15,-0.2,0.91,-4.67,6.31,0.02,00:03:57
2025-10-11 08:00:40,0.17,-0.19,1.11,0.06,6.23,0.2,00:03:57
2025-10-11 08:00:40,0.17,-0.2,0.92,-3.98,6.36,0.18,00:03:58
2025-10-11 08:00:40,0.15,-0.19,1.11,1.44,6.22,0.16,00:03:58
2025-10-11 08:00:40,0.14,-0.19,1.1,2.32,6.31,0.02,00:03:59
2025-10-11 08:00:41,0.13,-0.21,0.93,-4.09,6.29,0.04,00:03:59
2025-10-11 08:00:41,0.17,-0.19,1.09,3.15,6.31,0.14,00:04:00
2025-10-11 08:00:41,0.15,-0.2,0.92,-2.87,6.22,0.05,00:04:00
2025-10-11 08:00:41,0.14,-0.21,1.1,4.24,6.38,0.17,00:04:01
2025-10-11 08:00:41,0.15,-0.19,0.9,-2.57,6.24,0.04,00:04:01
2025-10-11 08:00:41,0.13,-0.21,1.09,4.0,6.23,0.16,00:04:02
2025-10-11 08:00:41,0.13,-0.18,0.89,-1.25,6.2,0.19,00:04:02
2025-10-11 08:00:41,0.15,-0.2,0.9,0.22,6.38,0.12,00:04:03
2025-10-11 08:00:41,0.15,-0.21,1.09,5.2,6.28,0.01,00:04:03
2025-10-11 08:00:41,0.15,-0.19,0.92,0.62,6.28,0.08,00:04:04
2025-10-11 08:00:41,0.16,-0.2,1.09,5.01,6.26,0.07,00:04:04
2025-10-11 08:00:42,0.14,-0.2,0.89,2.05,6.36,0.07,00:04:05
2025-10-11 08:00:42,0.14,-0.21,1.08,5.3,6.35,0.04,00:04:05
2025-10-11 08:00:42,0.16,-0.21,1.08,4.72,6.22,0.19,00:04:06
2025-10-11 08:00:42,0.15,-0.18,0.91,3.06,6.34,0.17,00:04:06
2025-10-11 08:00:42,0.16,-0.22,1.11,4.3,6.25,0.08,00:04:07
2025-10-11 08:00:42,0.16,-0.2,0.91,3.69,6.38,0.19,00:04:07
2025-10-11 08:00:42,0.14,-0.18,1.11,4.08,6.25,0.02,00:04:08
2025-10-11 08:00:42,0.16,-0.22,0.9,3.74,6.32,0.09,00:04:08
2025-10-11 08:00:42,0.16,-0.22,1.11,3.25,6.38,0.08,00:04:09
2025-10-11 08:00:42,0.15,-0.19,0.88,4.47,6.33,0.03,00:04:09
2025-10-11 08:00:42,0.16,-0.19,0.89,4.47,6.22,0.04,00:04:10
2025-10-11 08:00:42,0.14,-0.22,1.11,1.94,6.34,0.07,00:04:10
2025-10-11 08:00:43,0.13,-0.21,0.9,4.86,6.38,0.05,00:04:11
2025-10-11 08:00:43,0.16,-0.2,1.1,1.4,6.39,0.16,00:04:11
2025-10-11 08:00:43,0.14,-0.21,1.08,0.47,6.26,0.02,00:04:12
2025-10-11 08:00:43,0.14,-0.18,0.89,5.19,6.37,0.01,00:04:12
2025-10-11 08:00:43,0.16,-0.2,0.91,4.51,6.35,0.08,00:04:13
2025-10-11 08:00:43,0.17,-0.19,1.09,-0.75,6.23,0.03,00:04:13
2025-10-11 08:00:43,0.16,-0.19,0.9,4.01,6.28,0.15,00:04:14
2025-10-11 08:00:43,0.17,-0.22,1.08,-2.02,6.32,0.03,00:04:14
2025-10-11 08:00:43,0.16,-0.2,1.09,-2.49,6.27,0.18,00:04:15
2025-10-11 08:00:43,0.15,-0.21,0.92,3.09,6.31,0.19,00:04:15
2025-10-11 08:00:43,0.14,-0.19,1.09,-3.78,6.27,0.07,00:04:16
2025-10-11 08:00:44,0.17,-0.21,0.92,2.49,6.2,0.16,00:04:16
2025-10-11 08:00:44,0.14,-0.22,0.9,1.66,6.25,0.16,00:04:17
2025-10-11 08:00:44,0.16,-0.21,1.08,-4.27,6.4,0.15,00:04:17
2025-10-11 08:00:44,0.15,-0.2,0.9,0.78,6.31,0.14,00:04:18
2025-10-11 08:00:44,0.14,-0.21,1.06,-4.46,6.37,0.01,00:04:18
2025-10-11 08:00:44,0.13,-0.2,0.92,-0.3,6.25,0.03,00:04:19
2025-10-11 08:00:44,0.14,-0.21,1.06,-4.8,6.33,0.09,00:04:19
2025-10-11 08:00:44,0.14,-0.21,0.91,-1.63,6.31,0.13,00:04:20
2025-10-11 08:00:44,0.17,-0.22,1.06,-4.73,6.33,0.04,00:04:20
2025-10-11 08:00:44,0.13,-0.19,0.93,-1.9,6.23,0.07,00:04:21
2025-10-11 08:00:44,0.14,-0.19,1.08,-5.17,6.35,0.13,00:04:21
2025-10-11 08:00:44,0.15,-0.2,0.93,-3.21,6.34,0.16,00:04:22
2025-10-11 08:00:45,0.17,-0.21,1.05,-4.19,6.26,0.05,00:04:22
2025-10-11 08:00:45,0.16,-0.21,0.92,-3.39,6.36,0.11,00:04:23
2025-10-11 08:00:45,0.14,-0.22,1.06,-4.46,6.34,0.12,00:04:23
2025-10-11 08:00:45,0.14,-0.19,0.91,-3.92,6.39,0.09,00:04:24
2025-10-11 08:00:45,0.16,-0.18,1.07,-2.95,6.24,0.04,00:04:24
2025-10-11 08:00:45,0.16,-0.22,0.93,-4.59,6.39,0.07,00:04:25
2025-10-11 08:00:45,0.16,-0.2,1.05,-3.01,6.3,0.08,00:04:25
2025-10-11 08:00:45,0.15,-0.2,0.92,-4.56,6.21,0.03,00:04:26
2025-10-11 08:00:45,0.13,-0.19,1.04,-1.6,6.32,0.0,00:04:26
2025-10-11 08:00:45,0.13,-0.21,0.92,-4.56,6.28,0.17,00:04:27
2025-10-11 08:00:45,0.15,-0.21,1.06,-0.29,6.36,0.17,00:04:27
2025-10-11 08:00:46,0.17,-0.19,1.04,0.13,6.36,0.02,00:04:28
2025-10-11 08:00:46,0.16,-0.19,0.95,-5.21,6.33,0.17,00:04:28
2025-10-11 08:00:46,0.15,-0.19,0.96,-4.69,6.35,0.15,00:04:29
2025-10-11 08:00:46,0.14,-0.2,1.04,1.66,6.37,0.15,00:04:29
2025-10-11 08:00:46,0.15,-0.19,1.02,2.71,6.21,0.02,00:04:30
2025-10-11 08:00:46,0.16,-0.19,0.93,-4.18,6.35,0.19,00:04:30
2025-10-11 08:00:46,0.14,-0.2,1.02,2.8,6.38,0.04,00:04:31
2025-10-11 08:00:46,0.14,-0.18,0.93,-2.74,6.25,0.05,00:04:31
2025-10-11 08:00:46,0.16,-0.19,0.97,-2.14,6.39,0.13,00:04:32
2025-10-11 08:00:46,0.15,-0.21,1.03,3.82,6.37,0.12,00:04:32
2025-10-11 08:00:46,0.17,-0.19,0.97,-1.73,6.38,0.12,00:04:33
2025-10-11 08:00:46,0.13,-0.2,1.02,4.19,6.39,0.04,00:04:33
2025-10-11 08:00:47,0.17,-0.21,0.94,-0.58,6.24,0.1,00:04:34
2025-10-11 08:00:47,0.15,-0.2,0.99,4.82,6.4,0.1,00:04:34
2025-10-11 08:00:47,0.15,-0.2,0.97,1.12,6.22,0.05,00:04:35
2025-10-11 08:00:47,0.14,-0.19,1.01,4.65,6.37,0.03,00:04:35
2025-10-11 08:00:47,0.15,-0.19,0.98,2.05,6.29,0.02,00:04:36
2025-10-11 08:00:47,0.16,-0.2,1.02,4.48,6.37,0.05,00:04:36
2025-10-11 08:00:47,0.14,-0.2,0.98,4.97,6.37,0.13,00:04:37
2025-10-11 08:00:47,0.16,-0.21,0.97,2.2,6.35,0.13,00:04:37
2025-10-11 08:00:47,0.15,-0.2,0.99,2.89,6.22,0.05,00:04:38
2025-10-11 08:00:47,0.15,-0.2,1.0,4.79,6.31,0.12,00:04:38
2025-10-11 08:00:47,0.14,-0.18,0.98,4.11,6.35,0.19,00:04:39
2025-10-11 08:00:48,0.14,-0.21,0.98,3.32,6.4,0.12,00:04:39
2025-10-11 08:00:48,0.14,-0.19,0.99,2.77,6.23,0.16,00:04:40
2025-10-11 08:00:48,0.16,-0.2,0.99,4.18,6.22,0.04,00:04:40
2025-10-11 08:00:48,0.15,-0.21,0.98,4.39,6.29,0.05,00:04:41
2025-10-11 08:00:48,0.16,-0.22,0.97,1.88,6.35,0.12,00:04:41
2025-10-11 08:00:48,0.16,-0.19,0.98,5.46,6.21,0.18,00:04:42
2025-10-11 08:00:48,0.14,-0.18,0.96,0.82,6.24,0.16,00:04:42
2025-10-11 08:00:48,0.16,-0.2,1.02,5.04,6.3,0.08,00:04:43
2025-10-11 08:00:48,0.16,-0.2,0.98,-0.09,6.38,0.1,00:04:43
2025-10-11 08:00:48,0.16,-0.21,1.0,4.41,6.24,0.03,00:04:44
2025-10-11 08:00:48,0.16,-0.2,0.95,-1.11,6.33,0.09,00:04:44
2025-10-11 08:00:48,0.14,-0.2,1.02,4.16,6.34,0.07,00:04:45
2025-10-11 08:00:49,0.13,-0.2,0.96,-1.65,6.2,0.08,00:04:45
2025-10-11 08:00:49,0.14,-0.22,0.96,-2.58,6.35,0.0,00:04:46
2025-10-11 08:00:49,0.16,-0.2,1.0,3.11,6.27,0.1,00:04:46
2025-10-11 08:00:49,0.14,-0.18,1.01,2.79,6.2,0.02,00:04:47
2025-10-11 08:00:49,0.15,-0.18,0.95,-3.23,6.33,0.03,00:04:47
2025-10-11 08:00:49,0.16,-0.19,0.93,-4.05,6.31,0.1,00:04:48
2025-10-11 08:00:49,0.15,-0.21,1.05,1.51,6.3,0.08,00:04:48
2025-10-11 08:00:49,0.14,-0.18,1.05,0.5,6.26,0.01,00:04:49
2025-10-11 08:00:49,0.13,-0.19,0.93,-4.86,6.29,0.03,00:04:49
2025-10-11 08:00:49,0.16,-0.19,0.92,-4.92,6.28,0.03,00:04:50
2025-10-11 08:00:49,0.17,-0.18,1.06,-0.55,6.21,0.17,00:04:50
2025-10-11 08:00:50,0.16,-0.19,0.91,-4.55,6.22,0.08,00:04:51
2025-10-11 08:00:50,0.13,-0.21,1.05,-1.02,6.3,0.14,00:04:51
2025-10-11 08:00:50,0.13,-0.22,1.05,-1.7,6.21,0.15,00:04:52
2025-10-11 08:00:50,0.15,-0.21,0.92,-4.63,6.4,0.17,00:04:52
2025-10-11 08:00:50,0.14,-0.2,0.91,-4.81,6.39,0.04,00:04:53
2025-10-11 08:00:50,0.15,-0.21,1.04,-3.39,6.22,0.03,00:04:53
2025-10-11 08:00:50,0.17,-0.19,1.04,-3.5,6.38,0.17,00:04:54
2025-10-11 08:00:50,0.17,-0.2,0.93,-4.0,6.22,0.19,00:04:54
2025-10-11 08:00:50,0.14,-0.2,1.08,-3.81,6.32,0.15,00:04:55
2025-10-11 08:00:50,0.16,-0.21,0.91,-3.1,6.29,0.13,00:04:55
2025-10-11 08:00:50,0.13,-0.21,1.06,-4.66,6.38,0.1,00:04:56
2025-10-11 08:00:50,0.15,-0.19,0.91,-3.12,6.24,0.2,00:04:56
2025-10-11 08:00:51,0.16,-0.19,1.05,-4.89,6.29,0.02,00:04:57
2025-10-11 08:00:51,0.17,-0.2,0.93,-1.45,6.39,0.11,00:04:57
2025-10-11 08:00:51,0.15,-0.21,0.9,-0.73,6.35,0.12,00:04:58
2025-10-11 08:00:51,0.14,-0.21,1.07,-5.45,6.23,0.04,00:04:58
2025-10-11 08:00:51,0.13,-0.18,0.93,-0.05,6.36,0.03,00:04:59
2025-10-11 08:00:51,0.15,-0.18,1.09,-5.26,6.3,0.17,00:04:59
2025-10-11 08:00:51,0.15,-0.18,1.08,-4.9,6.33,0.16,00:05:00
2025-10-11 08:00:51,0.15,-0.18,0.91,1.55,6.4,0.06,00:05:00
2025-10-11 08:00:51,0.14,-0.22,1.06,-3.65,6.25,0.14,00:05:01
2025-10-11 08:00:51,0.15,-0.19,0.9,2.42,6.35,0.08,00:05:01
2025-10-11 08:00:51,0.14,-0.19,1.07,-3.54,6.31,0.12,00:05:02
2025-10-11 08:00:52,0.16,-0.18,0.92,2.99,6.25,0.15,00:05:02
2025-10-11 08:00:52,0.16,-0.22,0.89,4.08,6.3,0.14,00:05:03
2025-10-11 08:00:52,0.14,-0.19,1.08,-2.22,6.34,0.19,00:05:03
2025-10-11 08:00:52,0.17,-0.2,1.09,-1.91,6.28,0.01,00:05:04
2025-10-11 08:00:52,0.17,-0.2,1.09,-0.06,6.38,0.16,00:05:05
2025-10-11 08:00:52,0.15,-0.2,0.91,3.97,6.24,0.16,00:05:05
2025-10-11 08:00:52,0.14,-0.2,0.88,4.69,6.35,0.1,00:05:06
2025-10-11 08:00:52,0.15,-0.22,1.11,0.86,6.34,0.01,00:05:06
2025-10-11 08:00:52,0.15,-0.22,1.1,1.23,6.36,0.01,00:05:07
2025-10-11 08:00:52,0.14,-0.19,0.89,5.43,6.26,0.16,00:05:07
2025-10-11 08:00:52,0.16,-0.19,0.89,4.8,6.39,0.02,00:05:08
2025-10-11 08:00:52,0.16,-0.21,1.1,2.17,6.23,0.19,00:05:08
2025-10-11 08:00:53,0.15,-0.2,1.09,3.43,6.2,0.05,00:05:09
2025-10-11 08:00:53,0.15,-0.21,0.92,4.89,6.38,0.03,00:05:09
2025-10-11 08:00:53,0.15,-0.21,1.09,4.44,6.32,0.18,00:05:10
2025-10-11 08:00:53,0.16,-0.19,0.9,4.09,6.26,0.04,00:05:10
2025-10-11 08:00:53,0.16,-0.22,1.08,4.9,6.37,0.19,00:05:11
2025-10-11 08:00:53,0.17,-0.19,0.92,3.56,6.39,0.08,00:05:11
2025-10-11 08:00:53,0.17,-0.19,0.89,3.51,6.36,0.14,00:05:12
2025-10-11 08:00:53,0.15,-0.21,1.11,5.3,6.24,0.18,00:05:12
2025-10-11 08:00:53,0.13,-0.2,1.1,4.99,6.31,0.19,00:05:13
2025-10-11 08:00:53,0.13,-0.19,0.91,2.05,6.35,0.18,00:05:13
2025-10-11 08:00:53,0.17,-0.22,1.09,5.16,6.2,0.11,00:05:14
2025-10-11 08:00:54,0.16,-0.22,0.92,1.83,6.26,0.13,00:05:14
2025-10-11 08:00:54,0.13,-0.18,0.91,0.54,6.33,0.08,00:05:15
2025-10-11 08:00:54,0.15,-0.22,1.11,4.48,6.38,0.11,00:05:15
2025-10-11 08:00:54,0.13,-0.19,1.09,4.38,6.2,0.02,00:05:16
2025-10-11 08:00:54,0.13,-0.22,0.93,-1.04,6.39,0.17,00:05:16
2025-10-11 08:00:54,0.13,-0.21,1.11,3.43,6.24,0.16,00:05:17
2025-10-11 08:00:54,0.15,-0.21,0.92,-1.61,6.29,0.03,00:05:17
2025-10-11 08:00:54,0.15,-0.21,1.1,3.16,6.24,0.16,00:05:18
2025-10-11 08:00:54,0.15,-0.18,0.93,-2.49,6.24,0.12,00:05:18
2025-10-11 08:00:54,0.14,-0.2,1.1,2.38,6.22,0.14,00:05:19
2025-10-11 08:00:54,0.15,-0.19,0.93,-3.06,6.3,0.18,00:05:19
2025-10-11 08:00:54,0.14,-0.18,1.08,1.2,6.39,0.02,00:05:20
2025-10-11 08:00:55,0.13,-0.21,0.91,-4.27,6.32,0.17,00:05:20
2025-10-11 08:00:55,0.16,-0.19,0.93,-4.05,6.3,0.1,00:05:21
2025-10-11 08:00:55,0.15,-0.21,1.08,0.17,6.25,0.11,00:05:21
2025-10-11 08:00:55,0.16,-0.2,0.92,-4.44,6.37,0.04,00:05:22
2025-10-11 08:00:55,0.17,-0.21,1.11,-0.82,6.33,0.1,00:05:22
2025-10-11 08:00:55,0.16,-0.19,1.09,-2.25,6.31,0.02,00:05:23
2025-10-11 08:00:55,0.16,-0.22,0.93,-5.23,6.34,0.02,00:05:23
2025-10-11 08:00:55,0.16,-0.21,1.08,-3.13,6.27,0.18,00:05:24
2025-10-11 08:00:55,0.15,-0.19,0.94,-5.36,6.25,0.18,00:05:24
2025-10-11 08:00:55,0.16,-0.21,1.09,-3.49,6.22,0.14,00:05:25
2025-10-11 08:00:55,0.17,-0.2,0.94,-5.14,6.37,0.18,00:05:25
2025-10-11 08:00:56,0.14,-0.2,0.92,-4.59,6.37,0.17,00:05:26
2025-10-11 08:00:56,0.16,-0.19,1.09,-3.93,6.21,0.19,00:05:26
2025-10-11 08:00:56,0.16,-0.19,0.94,-3.71,6.23,0.01,00:05:27
2025-10-11 08:00:56,0.13,-0.21,1.08,-4.55,6.36,0.11,00:05:27
2025-10-11 08:00:56,0.13,-0.21,1.09,-5.25,6.35,0.2,00:05:28
2025-10-11 08:00:56,0.13,-0.18,0.94,-2.45,6.25,0.19,00:05:28
2025-10-11 08:00:56,0.13,-0.19,0.93,-1.9,6.28,0.15,00:05:29
2025-10-11 08:00:56,0.16,-0.18,1.06,-5.39,6.21,0.07,00:05:29
2025-10-11 08:00:56,0.14,-0.18,0.94,-1.2,6.31,0.04,00:05:30
2025-10-11 08:00:56,0.14,-0.18,1.09,-4.92,6.36,0.12,00:05:30
2025-10-11 08:00:56,0.14,-0.19,0.97,-0.27,6.21,0.18,00:05:31
2025-10-11 08:00:56,0.14,-0.19,1.07,-4.1,6.34,0.17,00:05:31
2025-10-11 08:00:57,0.14,-0.22,0.98,1.12,6.34,0.16,00:05:32
2025-10-11 08:00:57,0.17,-0.22,1.06,-4.18,6.38,0.02,00:05:32
2025-10-11 08:00:57,0.13,-0.2,1.06,-2.99,6.32,0.01,00:05:33
2025-10-11 08:00:57,0.14,-0.21,0.98,1.44,6.39,0.02,00:05:33
2025-10-11 08:00:57,0.17,-0.2,1.05,-2.55,6.33,0.09,00:05:34
2025-10-11 08:00:57,0.14,-0.21,0.98,2.89,6.37,0.07,00:05:34
2025-10-11 08:00:57,0.15,-0.2,0.97,3.16,6.36,0.18,00:05:35
2025-10-11 08:00:57,0.14,-0.2,1.04,-1.62,6.23,0.04,00:05:35
2025-10-11 08:00:57,0.14,-0.21,0.97,4.38,6.23,0.11,00:05:36
2025-10-11 08:00:57,0.15,-0.22,1.06,-0.74,6.38,0.19,00:05:36
2025-10-11 08:00:57,0.15,-0.21,1.0,4.65,6.26,0.04,00:05:37
2025-10-11 08:00:58,0.17,-0.2,1.04,0.54,6.27,0.16,00:05:37
2025-10-11 08:00:58,0.14,-0.21,1.0,4.52,6.33,0.0,00:05:38
2025-10-11 08:00:58,0.14,-0.19,1.02,1.78,6.39,0.06,00:05:38
2025-10-11 08:00:58,0.15,-0.22,0.98,4.72,6.22,0.14,00:05:39
2025-10-11 08:00:58,0.16,-0.21,1.02,2.28,6.32,0.03,00:05:39
2025-10-11 08:00:58,0.13,-0.22,1.02,4.58,6.35,0.14,00:05:40
2025-10-11 08:00:58,0.16,-0.22,1.02,3.21,6.22,0.02,00:05:40
2025-10-11 08:00:58,0.16,-0.21,0.99,4.3,6.38,0.15,00:05:41
2025-10-11 08:00:58,0.15,-0.2,1.02,4.09,6.3,0.0,00:05:41
2025-10-11 08:00:58,0.17,-0.2,1.01,4.79,6.35,0.16,00:05:42
2025-10-11 08:00:58,0.14,-0.19,1.01,4.38,6.25,0.02,00:05:42
2025-10-11 08:00:58,0.17,-0.2,1.02,3.68,6.26,0.01,00:05:43
2025-10-11 08:00:59,0.15,-0.18,1.01,5.1,6.38,0.01,00:05:43
2025-10-11 08:00:59,0.15,-0.2,1.0,4.63,6.24,0.08,00:05:44
2025-10-11 08:00:59,0.15,-0.18,1.02,2.07,6.32,0.05,00:05:44
2025-10-11 08:00:59,0.13,-0.19,1.03,1.73,6.38,0.19,00:05:45
2025-10-11 08:00:59,0.16,-0.2,0.98,5.21,6.34,0.14,00:05:45
2025-10-11 08:00:59,0.17,-0.22,1.01,4.54,6.34,0.03,00:05:46
2025-10-11 08:00:59,0.14,-0.22,1.03,0.29,6.27,0.05,00:05:46
2025-10-11 08:00:59,0.14,-0.2,1.02,-0.83,6.24,0.1,00:05:47
2025-10-11 08:00:59,0.16,-0.19,0.99,4.83,6.37,0.18,00:05:47
2025-10-11 08:00:59,0.15,-0.21,0.98,3.45,6.27,0.19,00:05:48
2025-10-11 08:00:59,0.16,-0.2,1.04,-1.27,6.37,0.05,00:05:48
2025-10-11 08:01:00,0.14,-0.22,1.04,-2.24,6.2,0.17,00:05:49
2025-10-11 08:01:00,0.14,-0.22,0.97,2.77,6.39,0.07,00:05:49
2025-10-11 08:01:00,0.15,-0.2,1.07,-2.86,6.37,0.02,00:05:50
2025-10-11 08:01:00,0.17,-0.22,0.96,1.99,6.35,0.02,00:05:50
2025-10-11 08:01:00,0.15,-0.19,1.05,-4.24,6.37,0.13,00:05:51
2025-10-11 08:01:00,0.14,-0.2,0.96,1.13,6.32,0.18,00:05:51
2025-10-11 08:01:00,0.15,-0.19,0.97,0.34,6.31,0.12,00:05:52
2025-10-11 08:01:00,0.15,-0.19,1.08,-4.69,6.39,0.12,00:05:52
2025-10-11 08:01:00,0.16,-0.22,0.95,-0.7,6.32,0.06,00:05:53
2025-10-11 08:01:00,0.17,-0.21,1.08,-5.05,6.23,0.14,00:05:53
2025-10-11 08:01:00,0.15,-0.21,1.07,-4.52,6.25,0.08,00:05:54
2025-10-11 08:01:00,0.16,-0.22,0.94,-1.57,6.29,0.04,00:05:54
2025-10-11 08:01:01,0.16,-0.18,1.06,-5.37,6.38,0.08,00:05:55
2025-10-11 08:01:01,0.14,-0.2,0.95,-2.32,6.24,0.1,00:05:55
2025-10-11 08:01:01,0.16,-0.2,0.96,-3.1,6.36,0.09,00:05:56
2025-10-11 08:01:01,0.14,-0.18,1.07,-4.45,6.37,0.19,00:05:56
2025-10-11 08:01:01,0.14,-0.18,0.93,-4.22,6.3,0.18,00:05:57
2025-10-11 08:01:01,0.14,-0.19,1.09,-4.21,6.32,0.05,00:05:57
2025-10-11 08:01:01,0.15,-0.2,0.93,-5.03,6.2,0.2,00:05:58
2025-10-11 08:01:01,0.14,-0.19,1.1,-3.85,6.33,0.09,00:05:58
2025-10-11 08:01:01,0.15,-0.21,1.09,-3.32,6.31,0.0,00:05:59
2025-10-11 08:01:01,0.15,-0.22,0.92,-5.07,6.38,0.18,00:05:59
2025-10-11 08:01:01,0.13,-0.18,1.1,-1.74,6.23,0.1,00:06:00
2025-10-11 08:01:02,0.15,-0.22,0.92,-4.99,6.22,0.18,00:06:00
2025-10-11 08:01:02,0.16,-0.2,1.11,-0.88,6.22,0.19,00:06:01
2025-10-11 08:01:02,0.15,-0.22,0.93,-4.47,6.34,0.11,00:06:01
2025-10-11 08:01:02,0.16,-0.22,1.07,-0.74,6.23,0.16,00:06:02
2025-10-11 08:01:02,0.14,-0.19,0.94,-4.33,6.28,0.09,00:06:02
2025-10-11 08:01:02,0.15,-0.22,1.1,1.06,6.27,0.2,00:06:03
2025-10-11 08:01:02,0.14,-0.21,0.94,-4.45,6.26,0.11,00:06:04
2025-10-11 08:01:02,0.14,-0.18,1.08,1.55,6.39,0.1,00:06:04
2025-10-11 08:01:02,0.16,-0.21,1.1,2.55,6.2,0.18,00:06:05
2025-10-11 08:01:02,0.15,-0.19,0.93,-3.0,6.37,0.11,00:06:05
2025-10-11 08:01:02,0.15,-0.21,0.9,-2.71,6.31,0.03,00:06:06
2025-10-11 08:01:02,0.16,-0.21,1.12,3.68,6.3,0.11,00:06:06
2025-10-11 08:01:03,0.15,-0.21,0.92,-2.01,6.24,0.19,00:06:07
2025-10-11 08:01:03,0.16,-0.2,1.12,4.5,6.3,0.2,00:06:07
2025-10-11 08:01:03,0.15,-0.19,1.11,4.75,6.23,0.05,00:06:08
2025-10-11 08:01:03,0.17,-0.18,0.91,-1.19,6.22,0.05,00:06:08
2025-10-11 08:01:03,0.15,-0.19,1.09,4.88,6.38,0.08,00:06:09
2025-10-11 08:01:03,0.16,-0.2,0.91,0.05,6.38,0.09,00:06:09
2025-10-11 08:01:03,0.13,-0.22,0.89,1.0,6.31,0.15,00:06:10
2025-10-11 08:01:03,0.16,-0.2,1.08,4.91,6.29,0.09,00:06:10
2025-10-11 08:01:03,0.15,-0.19,1.09,4.83,6.31,0.18,00:06:11
2025-10-11 08:01:03,0.16,-0.18,0.92,2.46,6.28,0.07,00:06:11
2025-10-11 08:01:03,0.15,-0.19,1.11,4.19,6.29,0.17,00:06:12
2025-10-11 08:01:03,0.15,-0.22,0.91,3.19,6.27,0.15,00:06:12
2025-10-11 08:01:04,0.14,-0.21,0.9,3.39,6.29,0.09,00:06:13
2025-10-11 08:01:04,0.16,-0.2,1.08,4.21,6.24,0.08,00:06:13
2025-10-11 08:01:04,0.13,-0.18,0.88,3.98,6.24,0.05,00:06:14
2025-10-11 08:01:04,0.15,-0.19,1.1,3.72,6.33,0.08,00:06:14
2025-10-11 08:01:04,0.16,-0.2,1.12,2.34,6.36,0.1,00:06:15
2025-10-11 08:01:04,0.16,-0.21,0.89,4.69,6.25,0.15,00:06:15
2025-10-11 08:01:04,0.16,-0.2,1.1,1.66,6.33,0.11,00:06:16
2025-10-11 08:01:04,0.15,-0.18,0.88,4.68,6.28,0.12,00:06:16
2025-10-11 08:01:04,0.14,-0.19,1.08,0.75,6.21,0.15,00:06:17
2025-10-11 08:01:04,0.15,-0.21,0.9,4.62,6.2,0.03,00:06:17
2025-10-11 08:01:04,0.13,-0.18,0.91,4.41,6.38,0.05,00:06:18
2025-10-11 08:01:05,0.17,-0.19,1.11,0.13,6.33,0.01,00:06:18
2025-10-11 08:01:05,0.13,-0.21,1.1,-1.09,6.36,0.04,00:06:19
2025-10-11 08:01:05,0.14,-0.21,0.89,4.61,6.36,0.1,00:06:19
2025-10-11 08:01:05,0.15,-0.18,1.09,-2.27,6.24,0.05,00:06:20
2025-10-11 08:01:05,0.16,-0.19,0.89,4.37,6.22,0.13,00:06:20
2025-10-11 08:01:05,0.16,-0.21,0.91,3.12,6.23,0.12,00:06:21
2025-10-11 08:01:05,0.16,-0.18,1.09,-3.24,6.26,0.09,00:06:21
2025-10-11 08:01:05,0.17,-0.22,0.9,1.85,6.29,0.04,00:06:22
2025-10-11 08:01:05,0.15,-0.2,1.07,-4.05,6.33,0.18,00:06:22
2025-10-11 08:01:05,0.14,-0.22,1.1,-4.17,6.3,0.02,00:06:23
2025-10-11 08:01:05,0.15,-0.21,0.89,1.36,6.38,0.09,00:06:23
2025-10-11 08:01:05,0.15,-0.2,1.09,-5.1,6.23,0.1,00:06:24
2025-10-11 08:01:06,0.15,-0.2,0.91,0.89,6.22,0.19,00:06:24
2025-10-11 08:01:06,0.14,-0.18,0.92,-0.33,6.25,0.1,00:06:25
2025-10-11 08:01:06,0.14,-0.21,1.06,-4.84,6.28,0.17,00:06:25
2025-10-11 08:01:06,0.14,-0.22,1.06,-5.19,6.37,0.01,00:06:26
2025-10-11 08:01:06,0.14,-0.21,0.91,-1.43,6.23,0.12,00:06:26
2025-10-11 08:01:06,0.13,-0.19,1.08,-4.68,6.27,0.02,00:06:27
2025-10-11 08:01:06,0.14,-0.21,0.91,-2.52,6.27,0.07,00:06:27
2025-10-11 08:01:06,0.13,-0.19,1.04,-4.65,6.23,0.16,00:06:28
2025-10-11 08:01:06,0.16,-0.2,0.94,-2.98,6.29,0.06,00:06:28
2025-10-11 08:01:06,0.15,-0.19,1.06,-4.16,6.21,0.17,00:06:29
2025-10-11 08:01:06,0.17,-0.2,0.92,-4.3,6.37,0.01,00:06:29
2025-10-11 08:01:07,0.16,-0.2,1.06,-3.55,6.4,0.17,00:06:30
2025-10-11 08:01:07,0.14,-0.2,0.93,-4.14,6.21,0.11,00:06:30
2025-10-11 08:01:07,0.13,-0.2,0.94,-4.8,6.39,0.16,00:06:31
2025-10-11 08:01:07,0.13,-0.18,1.07,-2.53,6.26,0.0,00:06:31
2025-10-11 08:01:07,0.16,-0.22,0.93,-4.6,6.39,0.01,00:06:32
2025-10-11 08:01:07,0.14,-0.2,1.04,-1.57,6.27,0.03,00:06:32
2025-10-11 08:01:07,0.13,-0.18,0.94,-5.34,6.22,0.18,00:06:33
2025-10-11 08:01:07,0.13,-0.18,1.04,-0.5,6.25,0.16,00:06:33
2025-10-11 08:01:07,0.15,-0.2,0.93,-4.58,6.39,0.05,00:06:34
2025-10-11 08:01:07,0.14,-0.18,1.02,0.18,6.26,0.1,00:06:34
2025-10-11 08:01:07,0.16,-0.19,0.95,-4.34,6.37,0.13,00:06:35
2025-10-11 08:01:07,0.15,-0.21,1.03,1.21,6.24,0.17,00:06:35
2025-10-11 08:01:08,0.15,-0.21,0.93,-3.98,6.39,0.11,00:06:36
2025-10-11 08:01:08,0.13,-0.22,1.04,2.08,6.23,0.11,00:06:36
2025-10-11 08:01:08,0.15,-0.19,0.96,-2.97,6.37,0.18,00:06:37
2025-10-11 08:01:08,0.14,-0.2,1.0,3.03,6.28,0.03,00:06:37
2025-10-11 08:01:08,0.15,-0.21,1.01,3.52,6.25,0.11,00:06:38
2025-10-11 08:01:08,0.13,-0.2,0.96,-2.19,6.23,0.09,00:06:38
2025-10-11 08:01:08,0.16,-0.21,1.03,4.29,6.38,0.03,00:06:39
2025-10-11 08:01:08,0.16,-0.2,0.95,-1.05,6.24,0.16,00:06:39
2025-10-11 08:01:08,0.15,-0.21,0.98,0.18,6.4,0.05,00:06:40
2025-10-11 08:01:08,0.14,-0.19,1.02,5.17,6.21,0.08,00:06:40
2025-10-11 08:01:08,0.15,-0.18,0.96,1.05,6.25,0.14,00:06:41
2025-10-11 08:01:09,0.13,-0.21,1.0,5.11,6.25,0.19,00:06:41
2025-10-11 08:01:09,0.16,-0.21,0.98,5.28,6.22,0.15,00:06:42
2025-10-11 08:01:09,0.14,-0.2,0.97,1.54,6.22,0.04,00:06:42
2025-10-11 08:01:09,0.14,-0.18,0.98,4.69,6.36,0.04,00:06:43
2025-10-11 08:01:09,0.16,-0.21,0.98,2.87,6.38,0.03,00:06:43
2025-10-11 08:01:09,0.15,-0.22,0.98,3.78,6.32,0.07,00:06:44
2025-10-11 08:01:09,0.16,-0.21,0.98,3.67,6.34,0.12,00:06:44
2025-10-11 08:01:09,0.15,-0.19,0.98,3.81,6.29,0.03,00:06:45
2025-10-11 08:01:09,0.17,-0.2,0.99,4.45,6.26,0.08,00:06:45
2025-10-11 08:01:09,0.16,-0.2,0.97,2.59,6.29,0.04,00:06:46
2025-10-11 08:01:09,0.14,-0.22,0.98,4.37,6.36,0.16,00:06:46
2025-10-11 08:01:09,0.16,-0.19,0.96,1.48,6.23,0.17,00:06:47
2025-10-11 08:01:10,0.16,-0.2,0.99,5.11,6.28,0.03,00:06:47
2025-10-11 08:01:10,0.17,-0.2,1.0,4.63,6.37,0.15,00:06:48
2025-10-11 08:01:10,0.16,-0.2,0.97,0.82,6.26,0.15,00:06:48
2025-10-11 08:01:10,0.16,-0.2,1.01,4.48,6.29,0.03,00:06:49
2025-10-11 08:01:10,0.13,-0.21,0.96,-0.01,6.33,0.09,00:06:49
2025-10-11 08:01:10,0.14,-0.2,0.94,-1.24,6.31,0.15,00:06:50
2025-10-11 08:01:10,0.14,-0.2,1.02,4.95,6.28,0.16,00:06:50
2025-10-11 08:01:10,0.15,-0.21,1.03,4.03,6.37,0.1,00:06:51
2025-10-11 08:01:10,0.15,-0.2,0.94,-1.68,6.21,0.05,00:06:51
2025-10-11 08:01:10,0.17,-0.19,1.02,3.73,6.35,0.11,00:06:52
2025-10-11 08:01:10,0.16,-0.2,0.96,-2.46,6.21,0.09,00:06:52
2025-10-11 08:01:11,0.13,-0.2,0.93,-3.2,6.23,0.2,00:06:53
2025-10-11 08:01:11,0.13,-0.18,1.04,2.58,6.33,0.17,00:06:53
2025-10-11 08:01:11,0.14,-0.22,1.05,1.09,6.23,0.17,00:06:54
2025-10-11 08:01:11,0.15,-0.21,0.92,-3.84,6.33,0.05,00:06:54
2025-10-11 08:01:11,0.16,-0.18,0.94,-4.75,6.36,0.0,00:06:55
2025-10-11 08:01:11,0.15,-0.21,1.02,0.25,6.33,0.04,00:06:55
2025-10-11 08:01:11,0.16,-0.19,0.92,-5.18,6.34,0.13,00:06:56
2025-10-11 08:01:11,0.13,-0.19,1.05,0.01,6.21,0.15,00:06:56
2025-10-11 08:01:11,0.14,-0.2,0.91,-4.76,6.2,0.12,00:06:57
2025-10-11 08:01:11,0.14,-0.19,1.03,-1.48,6.38,0.17,00:06:57
2025-10-11 08:01:11,0.14,-0.22,1.07,-2.26,6.29,0.14,00:06:58
2025-10-11 08:01:11,0.14,-0.22,0.91,-5.01,6.21,0.15,00:06:58
2025-10-11 08:01:12,0.16,-0.2,1.06,-3.43,6.32,0.11,00:06:59
2025-10-11 08:01:12,0.15,-0.21,0.92,-4.21,6.38,0.13,00:06:59
2025-10-11 08:01:12,0.16,-0.22,1.07,-3.48,6.24,0.05,00:07:00
2025-10-11 08:01:12,0.13,-0.19,0.93,-4.25,6.28,0.06,00:07:00
2025-10-11 08:01:12,0.16,-0.21,1.05,-4.24,6.22,0.14,00:07:01
2025-10-11 08:01:12,0.16,-0.22,0.92,-3.79,6.23,0.09,00:07:01
2025-10-11 08:01:12,0.16,-0.22,0.9,-2.43,6.27,0.08,00:07:02
2025-10-11 08:01:12,0.15,-0.21,1.08,-4.46,6.3,0.2,00:07:02
2025-10-11 08:01:12,0.14,-0.18,0.92,-1.59,6.23,0.01,00:07:03
2025-10-11 08:01:12,0.13,-0.18,1.09,-4.62,6.36,0.07,00:07:03
2025-10-11 08:01:12,0.15,-0.21,1.07,-5.25,6.21,0.09,00:07:04
2025-10-11 08:01:13,0.17,-0.18,0.89,-1.01,6.26,0.13,00:07:04
2025-10-11 08:01:13,0.15,-0.19,1.09,-4.27,6.38,0.03,00:07:05
2025-10-11 08:01:13,0.16,-0.2,0.91,0.91,6.21,0.12,00:07:05
2025-10-11 08:01:13,0.16,-0.19,1.08,-4.8,6.28,0.0,00:07:06
2025-10-11 08:01:13,0.16,-0.2,0.91,1.83,6.27,0.18,00:07:06
2025-10-11 08:01:13,0.15,-0.2,1.07,-4.11,6.21,0.15,00:07:07
2025-10-11 08:01:13,0.13,-0.2,0.89,2.2,6.27,0.19,00:07:07
2025-10-11 08:01:13,0.14,-0.18,1.08,-3.12,6.27,0.14,00:07:08
2025-10-11 08:01:13,0.14,-0.19,0.89,2.98,6.25,0.03,00:07:08
2025-10-11 08:01:13,0.13,-0.22,0.92,4.31,6.29,0.07,00:07:09
2025-10-11 08:01:13,0.16,-0.19,1.07,-2.4,6.31,0.05,00:07:09
2025-10-11 08:01:13,0.16,-0.19,0.91,4.04,6.23,0.11,00:07:10
2025-10-11 08:01:14,0.16,-0.18,1.07,-0.77,6.39,0.12,00:07:10
2025-10-11 08:01:14,0.13,-0.2,1.11,-0.62,6.23,0.0,00:07:11
2025-10-11 08:01:14,0.15,-0.21,0.89,4.94,6.24,0.02,00:07:11
2025-10-11 08:01:14,0.14,-0.19,0.91,4.77,6.29,0.15,00:07:12
2025-10-11 08:01:14,0.14,-0.21,1.08,0.8,6.39,0.12,00:07:12
2025-10-11 08:01:14,0.17,-0.2,1.1,1.39,6.25,0.17,00:07:13
2025-10-11 08:01:14,0.15,-0.21,0.91,4.78,6.29,0.19,00:07:14
2025-10-11 08:01:14,0.17,-0.19,1.1,3.0,6.31,0.04,00:07:14
2025-10-11 08:01:14,0.15,-0.21,0.89,4.53,6.36,0.04,00:07:15
2025-10-11 08:01:14,0.16,-0.19,1.08,3.71,6.39,0.19,00:07:15
2025-10-11 08:01:14,0.17,-0.2,1.09,3.86,6.32,0.17,00:07:16
2025-10-11 08:01:15,0.15,-0.2,0.92,4.8,6.25,0.19,00:07:16
2025-10-11 08:01:15,0.16,-0.2,1.08,4.88,6.33,0.16,00:07:17
2025-10-11 08:01:15,0.14,-0.19,0.91,3.38,6.28,0.11,00:07:17
2025-10-11 08:01:15,0.17,-0.2,1.09,4.84,6.25,0.13,00:07:18
2025-10-11 08:01:15,0.14,-0.21,0.89,2.48,6.33,0.19,00:07:18
2025-10-11 08:01:15,0.17,-0.2,1.09,5.38,6.32,0.02,00:07:19
2025-10-11 08:01:15,0.13,-0.2,0.89,2.25,6.26,0.08,00:07:19
2025-10-11 08:01:15,0.14,-0.22,0.89,0.77,6.33,0.05,00:07:20
2025-10-11 08:01:15,0.16,-0.21,1.08,4.8,6.39,0.04,00:07:20
2025-10-11 08:01:15,0.14,-0.2,0.9,0.34,6.38,0.01,00:07:21
2025-10-11 08:01:15,0.14,-0.19,1.1,4.51,6.21,0.13,00:07:21
2025-10-11 08:01:15,0.15,-0.21,0.91,-1.11,6.24,0.1,00:07:22
2025-10-11 08:01:16,0.15,-0.18,1.09,3.87,6.31,0.06,00:07:22
2025-10-11 08:01:16,0.16,-0.21,1.09,3.14,6.39,0.14,00:07:23
2025-10-11 08:01:16,0.14,-0.22,0.92,-1.46,6.31,0.16,00:07:23
2025-10-11 08:01:16,0.16,-0.22,0.9,-2.41,6.38,0.09,00:07:24
2025-10-11 08:01:16,0.14,-0.21,1.1,2.55,6.28,0.19,00:07:24
2025-10-11 08:01:16,0.15,-0.22,0.91,-3.75,6.32,0.09,00:07:25
2025-10-11 08:01:16,0.17,-0.19,1.08,1.89,6.25,0.07,00:07:25
2025-10-11 08:01:16,0.16,-0.22,0.92,-3.75,6.22,0.19,00:07:26
2025-10-11 08:01:16,0.15,-0.19,1.11,0.99,6.22,0.04,00:07:26
2025-10-11 08:01:16,0.16,-0.21,0.93,-4.14,6.21,0.09,00:07:27
2025-10-11 08:01:16,0.17,-0.2,1.09,-0.36,6.38,0.12,00:07:27
2025-10-11 08:01:17,0.13,-0.19,0.91,-5.06,6.21,0.0,00:07:28
2025-10-11 08:01:17,0.15,-0.19,1.07,-0.79,6.29,0.02,00:07:28
2025-10-11 08:01:17,0.14,-0.22,1.08,-1.98,6.22,0.14,00:07:29
2025-10-11 08:01:17,0.16,-0.21,0.91,-4.69,6.36,0.15,00:07:29
2025-10-11 08:01:17,0.13,-0.2,0.94,-5.34,6.31,0.12,00:07:30
2025-10-11 08:01:17,0.16,-0.19,1.09,-3.16,6.34,0.18,00:07:30
2025-10-11 08:01:17,0.16,-0.2,0.92,-4.14,6.27,0.02,00:07:31
2025-10-11 08:01:17,0.17,-0.18,1.08,-3.71,6.25,0.18,00:07:31
2025-10-11 08:01:17,0.14,-0.19,1.1,-4.07,6.35,0.13,00:07:32
2025-10-11 08:01:17,0.15,-0.21,0.95,-4.31,6.38,0.18,00:07:32
2025-10-11 08:01:17,0.17,-0.21,1.07,-4.57,6.35,0.01,00:07:33
2025-10-11 08:01:17,0.13,-0.2,0.95,-3.43,6.2,0.1,00:07:33
2025-10-11 08:01:18,0.16,-0.18,1.06,-5.17,6.33,0.02,00:07:34
2025-10-11 08:01:18,0.14,-0.2,0.93,-2.25,6.3,0.18,00:07:34
2025-10-11 08:01:18,0.14,-0.19,1.07,-4.86,6.36,0.2,00:07:35
2025-10-11 08:01:18,0.15,-0.21,0.95,-1.95,6.23,0.13,00:07:35
2025-10-11 08:01:18,0.14,-0.19,0.95,-0.75,6.25,0.09,00:07:36
2025-10-11 08:01:18,0.16,-0.19,1.05,-4.45,6.29,0.05,00:07:36
2025-10-11 08:01:18,0.15,-0.2,1.08,-4.62,6.2,0.16,00:07:37
2025-10-11 08:01:18,0.17,-0.19,0.97,0.71,6.38,0.19,00:07:37
2025-10-11 08:01:18,0.14,-0.22,0.99,1.23,6.36,0.05,00:07:38
2025-10-11 08:01:18,0.15,-0.2,1.04,-3.9,6.22,0.1,00:07:38
2025-10-11 08:01:18,0.15,-0.21,0.99,1.77,6.21,0.13,00:07:39
2025-10-11 08:01:19,0.16,-0.2,1.07,-2.96,6.25,0.1,00:07:39
2025-10-11 08:01:19,0.13,-0.2,1.06,-2.4,6.39,0.07,00:07:40
2025-10-11 08:01:19,0.16,-0.21,0.96,3.11,6.38,0.07,00:07:40
2025-10-11 08:01:19,0.15,-0.21,1.03,-1.35,6.3,0.03,00:07:41
2025-10-11 08:01:19,0.15,-0.19,0.98,3.91,6.29,0.02,00:07:41
2025-10-11 08:01:19,0.15,-0.19,0.97,4.42,6.3,0.17,00:07:42
2025-10-11 08:01:19,0.14,-0.19,1.03,-0.54,6.27,0.14,00:07:42
2025-10-11 08:01:19,0.15,-0.22,1.04,0.54,6.29,0.12,00:07:43
2025-10-11 08:01:19,0.13,-0.18,0.98,4.32,6.38,0.02,00:07:43
2025-10-11 08:01:19,0.16,-0.22,1.03,1.82,6.23,0.15,00:07:44
2025-10-11 08:01:19,0.15,-0.2,1.0,4.68,6.26,0.01,00:07:44
2025-10-11 08:01:19,0.16,-0.18,1.02,2.7,6.33,0.07,00:07:45
2025-10-11 08:01:20,0.15,-0.2,0.98,5.3,6.39,0.18,00:07:45
2025-10-11 08:01:20,0.13,-0.2,1.0,3.82,6.29,0.01,00:07:46
2025-10-11 08:01:20,0.17,-0.21,1.03,5.03,6.21,0.11,00:07:46
2025-10-11 08:01:20,0.17,-0.18,1.0,4.1,6.32,0.15,00:07:47
2025-10-11 08:01:20,0.16,-0.21,1.01,4.86,6.33,0.12,00:07:47
2025-10-11 08:01:20,0.14,-0.2,1.01,4.35,6.36,0.16,00:07:48
2025-10-11 08:01:20,0.16,-0.22,1.03,4.29,6.29,0.14,00:07:48
2025-10-11 08:01:20,0.15,-0.2,1.0,4.52,6.22,0.05,00:07:49
2025-10-11 08:01:20,0.14,-0.21,1.01,2.98,6.27,0.11,00:07:49
2025-10-11 08:01:20,0.16,-0.2,1.01,2.37,6.22,0.15,00:07:50
2025-10-11 08:01:20,0.15,-0.21,1.01,5.12,6.32,0.14,00:07:50
2025-10-11 08:01:21,0.13,-0.2,0.98,5.13,6.29,0.16,00:07:51
2025-10-11 08:01:21,0.14,-0.19,1.04,0.94,6.38,0.2,00:07:51
2025-10-11 08:01:21,0.14,-0.22,1.03,0.4,6.2,0.18,00:07:52
2025-10-11 08:01:21,0.16,-0.22,0.98,4.6,6.27,0.07,00:07:52
2025-10-11 08:01:21,0.13,-0.2,1.0,4.48,6.29,0.09,00:07:53
2025-10-11 08:01:21,0.14,-0.19,1.04,-1.09,6.37,0.06,00:07:53
2025-10-11 08:01:21,0.17,-0.19,0.99,3.91,6.38,0.09,00:07:54
2025-10-11 08:01:21,0.14,-0.2,1.04,-1.48,6.32,0.01,00:07:54
2025-10-11 08:01:21,0.14,-0.2,1.05,-2.39,6.34,0.0,00:07:55
2025-10-11 08:01:21,0.13,-0.18,0.97,3.12,6.38,0.08,00:07:55
2025-10-11 08:01:21,0.16,-0.21,1.04,-3.75,6.21,0.01,00:07:56
2025-10-11 08:01:21,0.14,-0.22,0.99,1.77,6.23,0.07,00:07:56
2025-10-11 08:01:22,0.14,-0.2,0.96,1.03,6.24,0.02,00:07:57
2025-10-11 08:01:22,0.17,-0.21,1.05,-3.78,6.36,0.19,00:07:57
2025-10-11 08:01:22,0.13,-0.21,0.97,0.11,6.24,0.03,00:07:58
2025-10-11 08:01:22,0.14,-0.21,1.07,-4.66,6.38,0.05,00:07:58
2025-10-11 08:01:22,0.14,-0.21,0.94,-1.04,6.24,0.11,00:07:59
2025-10-11 08:01:22,0.14,-0.18,1.05,-4.5,6.37,0.07,00:07:59
2025-10-11 08:01:22,0.14,-0.22,1.08,-5.39,6.35,0.06,00:08:00
2025-10-11 08:01:22,0.16,-0.21,0.97,-1.89,6.36,0.11,00:08:00
2025-10-11 08:01:22,0.14,-0.21,0.94,-3.18,6.32,0.03,00:08:01
2025-10-11 08:01:22,0.14,-0.18,1.06,-5.0,6.35,0.15,00:08:01
2025-10-11 08:01:22,0.16,-0.18,0.94,-3.26,6.29,0.1,00:08:02
2025-10-11 08:01:23,0.15,-0.19,1.06,-4.87,6.23,0.18,00:08:02
2025-10-11 08:01:23,0.17,-0.18,0.96,-4.53,6.31,0.04,00:08:03
2025-10-11 08:01:23,0.16,-0.19,1.08,-4.22,6.33,0.14,00:08:03
2025-10-11 08:01:23,0.16,-0.22,1.09,-3.78,6.33,0.12,00:08:04
2025-10-11 08:01:23,0.16,-0.21,0.96,-4.23,6.27,0.09,00:08:04
2025-10-11 08:01:23,0.15,-0.19,0.92,-5.32,6.23,0.03,00:08:05
2025-10-11 08:01:23,0.13,-0.19,1.1,-3.11,6.26,0.03,00:08:05
2025-10-11 08:01:23,0.14,-0.18,0.93,-4.88,6.39,0.13,00:08:06
2025-10-11 08:01:23,0.13,-0.22,1.09,-1.72,6.37,0.18,00:08:06
2025-10-11 08:01:23,0.17,-0.19,0.92,-4.92,6.38,0.06,00:08:07
2025-10-11 08:01:23,0.15,-0.21,1.09,-1.07,6.35,0.16,00:08:07
2025-10-11 08:01:23,0.15,-0.21,1.07,0.47,6.38,0.16,00:08:08
2025-10-11 08:01:24,0.14,-0.21,0.93,-4.87,6.23,0.19,00:08:08
2025-10-11 08:01:24,0.14,-0.2,0.9,-4.27,6.23,0.0,00:08:09
2025-10-11 08:01:24,0.15,-0.2,1.09,0.92,6.23,0.01,00:08:09
2025-10-11 08:01:24,0.16,-0.21,0.92,-3.54,6.23,0.07,00:08:10
2025-10-11 08:01:24,0.15,-0.19,1.11,2.21,6.25,0.16,00:08:10
2025-10-11 08:01:24,0.13,-0.2,0.91,-2.76,6.28,0.18,00:08:11
2025-10-11 08:01:24,0.14,-0.18,1.09,3.1,6.33,0.06,00:08:11
2025-10-11 08:01:24,0.16,-0.22,0.91,-1.88,6.34,0.13,00:08:12
2025-10-11 08:01:24,0.16,-0.2,1.09,4.04,6.3,0.08,00:08:12
2025-10-11 08:01:24,0.15,-0.21,1.11,4.57,6.38,0.13,00:08:13
2025-10-11 08:01:24,0.15,-0.2,0.93,-0.69,6.21,0.17,00:08:13
2025-10-11 08:01:25,0.14,-0.21,0.91,0.59,6.33,0.13,00:08:14
2025-10-11 08:01:25,0.13,-0.2,1.12,4.85,6.39,0.19,00:08:14
2025-10-11 08:01:25,0.17,-0.18,0.91,0.94,6.26,0.01,00:08:15
2025-10-11 08:01:25,0.14,-0.19,1.1,5.26,6.31,0.16,00:08:15
2025-10-11 08:01:25,0.17,-0.19,1.11,4.52,6.28,0.2,00:08:16
2025-10-11 08:01:25,0.13,-0.2,0.89,2.79,6.3,0.05,00:08:17
2025-10-11 08:01:25,0.15,-0.21,1.1,4.41,6.25,0.05,00:08:17
2025-10-11 08:01:25,0.14,-0.2,0.89,3.1,6.28,0.01,00:08:18
2025-10-11 08:01:25,0.15,-0.21,1.09,4.3,6.38,0.18,00:08:18
2025-10-11 08:01:25,0.15,-0.2,1.09,3.61,6.21,0.04,00:08:19
2025-10-11 08:01:25,0.14,-0.22,0.92,3.93,6.29,0.18,00:08:19
2025-10-11 08:01:25,0.14,-0.21,1.1,3.55,6.27,0.09,00:08:20
2025-10-11 08:01:26,0.15,-0.18,0.9,4.38,6.37,0.09,00:08:20
2025-10-11 08:01:26,0.14,-0.21,1.08,2.62,6.32,0.04,00:08:21
2025-10-11 08:01:26,0.17,-0.21,0.89,4.96,6.4,0.04,00:08:21
2025-10-11 08:01:26,0.17,-0.21,1.1,1.16,6.26,0.08,00:08:22
2025-10-11 08:01:26,0.14,-0.2,0.92,5.23,6.28,0.19,00:08:22
2025-10-11 08:01:26,0.13,-0.19,1.08,0.88,6.28,0.01,00:08:23
2025-10-11 08:01:26,0.15,-0.2,0.89,4.91,6.28,0.01,00:08:23
2025-10-11 08:01:26,0.16,-0.21,1.1,-0.81,6.25,0.16,00:08:24
2025-10-11 08:01:26,0.17,-0.2,0.89,4.87,6.34,0.03,00:08:24
2025-10-11 08:01:26,0.17,-0.18,1.07,-1.43,6.22,0.11,00:08:25
2025-10-11 08:01:26,0.15,-0.19,0.91,4.29,6.29,0.11,00:08:25
2025-10-11 08:01:27,0.14,-0.2,1.08,-2.26,6.32,0.18,00:08:26
2025-10-11 08:01:27,0.16,-0.19,0.91,3.43,6.35,0.05,00:08:26
2025-10-11 08:01:27,0.16,-0.18,0.88,2.89,6.26,0.03,00:08:27
2025-10-11 08:01:27,0.17,-0.21,1.1,-2.92,6.28,0.04,00:08:27
2025-10-11 08:01:27,0.15,-0.21,0.92,2.1,6.37,0.14,00:08:28
2025-10-11 08:01:27,0.14,-0.22,1.08,-3.92,6.21,0.19,00:08:28
2025-10-11 08:01:27,0.17,-0.18,1.09,-4.31,6.35,0.09,00:08:29
2025-10-11 08:01:27,0.14,-0.19,0.9,0.74,6.28,0.14,00:08:29
2025-10-11 08:01:27,0.17,-0.22,1.09,-4.59,6.29,0.2,00:08:30
2025-10-11 08:01:27,0.16,-0.21,0.9,0.58,6.39,0.08,00:08:30
2025-10-11 08:01:27,0.17,-0.19,0.89,-0.44,6.26,0.08,00:08:31
2025-10-11 08:01:27,0.14,-0.22,1.07,-5.21,6.32,0.05,00:08:31
2025-10-11 08:01:28,0.16,-0.2,1.08,-4.52,6.34,0.1,00:08:32
2025-10-11 08:01:28,0.16,-0.21,0.92,-2.04,6.31,0.03,00:08:32
2025-10-11 08:01:28,0.17,-0.21,0.93,-2.26,6.25,0.08,00:08:33
2025-10-11 08:01:28,0.13,-0.21,1.05,-4.47,6.36,0.01,00:08:33
2025-10-11 08:01:28,0.16,-0.18,1.08,-3.99,6.23,0.16,00:08:34
2025-10-11 08:01:28,0.14,-0.18,0.91,-3.2,6.26,0.1,00:08:34
2025-10-11 08:01:28,0.13,-0.22,1.05,-3.74,6.38,0.13,00:08:35
2025-10-11 08:01:28,0.15,-0.21,0.91,-3.86,6.26,0.08,00:08:35
2025-10-11 08:01:28,0.15,-0.2,1.07,-2.99,6.35,0.14,00:08:36
2025-10-11 08:01:28,0.16,-0.19,0.91,-4.47,6.25,0.1,00:08:36
2025-10-11 08:01:28,0.16,-0.19,1.03,-2.11,6.37,0.11,00:08:37
2025-10-11 08:01:29,0.14,-0.21,0.91,-4.97,6.28,0.08,00:08:37
2025-10-11 08:01:29,0.16,-0.21,1.04,-0.93,6.27,0.09,00:08:38
2025-10-11 08:01:29,0.14,-0.19,0.91,-5.4,6.28,0.05,00:08:38
2025-10-11 08:01:29,0.17,-0.19,0.95,-5.11,6.21,0.01,00:08:39
2025-10-11 08:01:29,0.13,-0.2,1.04,0.14,6.38,0.18,00:08:39
2025-10-11 08:01:29,0.17,-0.22,1.02,0.98,6.3,0.13,00:08:40
2025-10-11 08:01:29,0.15,-0.18,0.93,-4.99,6.38,0.15,00:08:40
2025-10-11 08:01:29,0.16,-0.19,0.93,-4.24,6.2,0.01,00:08:41
2025-10-11 08:01:29,0.14,-0.19,1.02,1.42,6.27,0.02,00:08:41
2025-10-11 08:01:29,0.14,-0.2,0.93,-3.7,6.36,0.18,00:08:42
2025-10-11 08:01:29,0.15,-0.2,1.03,2.93,6.21,0.15,00:08:42
2025-10-11 08:01:29,0.16,-0.22,1.0,3.18,6.25,0.06,00:08:43
2025-10-11 08:01:30,0.15,-0.2,0.95,-3.02,6.22,0.02,00:08:43
2025-10-11 08:01:30,0.17,-0.21,0.95,-2.04,6.32,0.2,00:08:44
2025-10-11 08:01:30,0.16,-0.22,1.01,4.46,6.22,0.1,00:08:44
2025-10-11 08:01:30,0.16,-0.2,1.0,4.44,6.27,0.04,00:08:45
2025-10-11 08:01:30,0.17,-0.21,0.96,-1.21,6.3,0.09,00:08:45
2025-10-11 08:01:30,0.15,-0.19,0.96,-0.13,6.32,0.07,00:08:46
2025-10-11 08:01:30,0.15,-0.21,1.02,4.58,6.35,0.1,00:08:46
2025-10-11 08:01:30,0.16,-0.2,0.96,1.74,6.24,0.18,00:08:47
2025-10-11 08:01:30,0.16,-0.19,1.02,5.39,6.25,0.12,00:08:47
2025-10-11 08:01:30,0.16,-0.21,0.98,5.12,6.32,0.15,00:08:48
2025-10-11 08:01:30,0.13,-0.19,0.98,1.98,6.26,0.15,00:08:48
2025-10-11 08:01:31,0.14,-0.18,0.99,2.68,6.25,0.13,00:08:49
2025-10-11 08:01:31,0.16,-0.19,0.97,4.81,6.39,0.06,00:08:49
2025-10-11 08:01:31,0.13,-0.18,0.98,3.84,6.25,0.17,00:08:50
2025-10-11 08:01:31,0.15,-0.21,0.99,4.05,6.2,0.02,00:08:50
2025-10-11 08:01:31,0.14,-0.2,0.99,3.16,6.26,0.08,00:08:51
2025-10-11 08:01:31,0.13,-0.18,1.0,4.08,6.38,0.08,00:08:51
2025-10-11 08:01:31,0.14,-0.21,0.98,2.4,6.34,0.2,00:08:52
2025-10-11 08:01:31,0.14,-0.22,1.01,4.44,6.23,0.11,00:08:52
2025-10-11 08:01:31,0.15,-0.19,0.95,1.79,6.21,0.11,00:08:53
2025-10-11 08:01:31,0.15,-0.2,0.99,4.89,6.31,0.18,00:08:53
2025-10-11 08:01:31,0.15,-0.21,0.95,0.83,6.24,0.09,00:08:54
2025-10-11 08:01:31,0.17,-0.18,1.0,4.56,6.31,0.1,00:08:54
2025-10-11 08:01:32,0.14,-0.2,0.95,-0.34,6.24,0.07,00:08:55
2025-10-11 08:01:32,0.15,-0.19,1.02,4.79,6.21,0.18,00:08:55
2025-10-11 08:01:32,0.17,-0.19,0.94,-0.94,6.32,0.15,00:08:56
2025-10-11 08:01:32,0.17,-0.18,1.01,4.41,6.38,0.07,00:08:56
2025-10-11 08:01:32,0.14,-0.2,0.93,-2.03,6.34,0.03,00:08:57
2025-10-11 08:01:32,0.17,-0.19,1.01,4.31,6.3,0.08,00:08:57
2025-10-11 08:01:32,0.13,-0.2,0.94,-3.44,6.22,0.03,00:08:58
2025-10-11 08:01:32,0.14,-0.19,1.03,3.44,6.24,0.06,00:08:58
2025-10-11 08:01:32,0.14,-0.18,0.93,-4.08,6.39,0.11,00:08:59
2025-10-11 08:01:32,0.15,-0.21,1.04,2.51,6.24,0.02,00:08:59
2025-10-11 08:01:32,0.14,-0.2,0.95,-4.88,6.32,0.11,00:09:00
2025-10-11 08:01:33,0.17,-0.19,1.03,0.99,6.36,0.09,00:09:00
2025-10-11 08:01:33,0.15,-0.19,0.95,-4.49,6.39,0.09,00:09:01
2025-10-11 08:01:33,0.15,-0.21,1.05,0.4,6.35,0.13,00:09:01
2025-10-11 08:01:33,0.16,-0.2,1.04,-0.25,6.21,0.17,00:09:02
2025-10-11 08:01:33,0.16,-0.19,0.93,-5.21,6.31,0.15,00:09:02
2025-10-11 08:01:33,0.14,-0.21,0.92,-4.76,6.38,0.04,00:09:03
2025-10-11 08:01:33,0.14,-0.21,1.06,-1.62,6.22,0.2,00:09:03
2025-10-11 08:01:33,0.16,-0.21,0.94,-4.41,6.35,0.18,00:09:04
2025-10-11 08:01:33,0.14,-0.19,1.07,-2.87,6.23,0.08,00:09:04
2025-10-11 08:01:33,0.13,-0.22,0.9,-3.97,6.27,0.06,00:09:05
2025-10-11 08:01:33,0.13,-0.21,1.07,-2.95,6.25,0.12,00:09:05
2025-10-11 08:01:33,0.16,-0.21,0.91,-3.84,6.29,0.2,00:09:06
2025-10-11 08:01:34,0.16,-0.19,1.05,-4.13,6.24,0.07,00:09:06
2025-10-11 08:01:34,0.13,-0.19,0.93,-2.95,6.23,0.1,00:09:07
2025-10-11 08:01:34,0.15,-0.21,1.07,-4.63,6.4,0.16,00:09:07
2025-10-11 08:01:34,0.14,-0.21,1.06,-4.88,6.38,0.01,00:09:08
2025-10-11 08:01:34,0.15,-0.21,0.93,-2.53,6.38,0.05,00:09:08
2025-10-11 08:01:34,0.16,-0.21,0.89,-1.0,6.29,0.1,00:09:09
2025-10-11 08:01:34,0.16,-0.21,1.07,-4.93,6.31,0.16,00:09:09
2025-10-11 08:01:34,0.14,-0.18,1.08,-4.73,6.28,0.08,00:09:10
2025-10-11 08:01:34,0.16,-0.19,0.89,-0.37,6.38,0.12,00:09:10
2025-10-11 08:01:34,0.16,-0.19,0.92,0.55,6.4,0.09,00:09:11
2025-10-11 08:01:34,0.17,-0.19,1.06,-4.15,6.37,0.16,00:09:11
2025-10-11 08:01:35,0.17,-0.18,0.92,2.1,6.35,0.19,00:09:12
2025-10-11 08:01:35,0.15,-0.21,1.08,-3.83,6.39,0.09,00:09:12
2025-10-11 08:01:35,0.17,-0.2,0.92,2.45,6.33,0.04,00:09:13
2025-10-11 08:01:35,0.13,-0.22,1.08,-3.54,6.31,0.1,00:09:13
2025-10-11 08:01:35,0.15,-0.19,0.92,3.61,6.27,0.06,00:09:14
2025-10-11 08:01:35,0.14,-0.2,1.08,-2.84,6.37,0.04,00:09:14
2025-10-11 08:01:35,0.15,-0.2,1.1,-2.3,6.36,0.17,00:09:15
2025-10-11 08:01:35,0.13,-0.19,0.89,3.9,6.29,0.03,00:09:15
2025-10-11 08:01:35,0.15,-0.22,1.08,-0.77,6.2,0.19,00:09:16
2025-10-11 08:01:35,0.14,-0.21,0.89,4.79,6.31,0.1,00:09:16
2025-10-11 08:01:35,0.16,-0.2,0.91,4.83,6.4,0.08,00:09:17
2025-10-11 08:01:35,0.15,-0.22,1.1,0.12,6.31,0.12,00:09:17
2025-10-11 08:01:36,0.14,-0.18,1.11,0.85,6.4,0.17,00:09:18
2025-10-11 08:01:36,0.14,-0.22,0.92,4.88,6.34,0.01,00:09:18
2025-10-11 08:01:36,0.16,-0.18,1.1,2.31,6.39,0.09,00:09:19
2025-10-11 08:01:36,0.13,-0.22,0.92,4.9,6.36,0.17,00:09:19
2025-10-11 08:01:36,0.16,-0.19,0.89,4.28,6.39,0.04,00:09:20
2025-10-11 08:01:36,0.15,-0.21,1.08,3.38,6.22,0.18,00:09:20
2025-10-11 08:01:36,0.14,-0.21,0.9,4.11,6.25,0.03,00:09:21
2025-10-11 08:01:36,0.15,-0.21,1.12,4.06,6.35,0.05,00:09:21
2025-10-11 08:01:36,0.17,-0.2,0.91,3.12,6.25,0.17,00:09:22
2025-10-11 08:01:36,0.17,-0.2,1.08,4.64,6.2,0.1,00:09:22
2025-10-11 08:01:36,0.15,-0.2,0.89,2.72,6.25,0.19,00:09:23
2025-10-11 08:01:36,0.15,-0.2,1.09,4.67,6.27,0.1,00:09:23
2025-10-11 08:01:37,0.14,-0.2,1.11,4.74,6.3,0.05,00:09:24
2025-10-11 08:01:37,0.16,-0.19,0.9,2.01,6.33,0.08,00:09:25
2025-10-11 08:01:37,0.17,-0.2,1.11,4.82,6.32,0.05,00:09:25
2025-10-11 08:01:37,0.17,-0.18,1.09,4.86,6.36,0.08,00:09:26
2025-10-11 08:01:37,0.14,-0.19,0.9,0.52,6.26,0.04,00:09:26
2025-10-11 08:01:37,0.17,-0.2,0.9,0.13,6.37,0.02,00:09:27
2025-10-11 08:01:37,0.13,-0.21,1.09,4.47,6.36,0.11,00:09:27
2025-10-11 08:01:37,0.13,-0.19,0.89,-0.93,6.38,0.08,00:09:28
2025-10-11 08:01:37,0.16,-0.2,1.1,3.93,6.3,0.04,00:09:28
2025-10-11 08:01:37,0.14,-0.2,0.93,-2.53,6.27,0.13,00:09:29
2025-10-11 08:01:37,0.14,-0.18,1.09,2.96,6.22,0.07,00:09:29
2025-10-11 08:01:38,0.16,-0.2,0.92,-2.75,6.39,0.17,00:09:30
2025-10-11 08:01:38,0.15,-0.21,1.1,2.41,6.22,0.18,00:09:30
2025-10-11 08:01:38,0.16,-0.21,0.91,-3.23,6.24,0.03,00:09:31
2025-10-11 08:01:38,0.15,-0.21,1.11,1.44,6.36,0.05,00:09:31
2025-10-11 08:01:38,0.16,-0.19,1.09,0.86,6.25,0.04,00:09:32
2025-10-11 08:01:38,0.14,-0.2,0.92,-4.07,6.38,0.08,00:09:32
2025-10-11 08:01:38,0.15,-0.21,1.08,-0.37,6.32,0.19,00:09:33
2025-10-11 08:01:38,0.13,-0.18,0.92,-5.03,6.22,0.07,00:09:33
2025-10-11 08:01:38,0.16,-0.21,1.09,-1.68,6.27,0.1,00:09:34
2025-10-11 08:01:38,0.14,-0.19,0.91,-5.36,6.23,0.18,00:09:34
2025-10-11 08:01:38,0.16,-0.2,1.09,-1.94,6.27,0.16,00:09:35
2025-10-11 08:01:38,0.13,-0.18,0.92,-4.5,6.36,0.07,00:09:35
2025-10-11 08:01:39,0.14,-0.22,1.07,-3.55,6.38,0.07,00:09:36
2025-10-11 08:01:39,0.16,-0.22,0.92,-4.39,6.22,0.06,00:09:36
2025-10-11 08:01:39,0.13,-0.22,1.09,-4.14,6.32,0.1,00:09:37
2025-10-11 08:01:39,0.15,-0.21,0.93,-3.96,6.34,0.03,00:09:37
2025-10-11 08:01:39,0.14,-0.22,1.09,-4.17,6.29,0.14,00:09:38
2025-10-11 08:01:39,0.16,-0.21,0.95,-3.54,6.3,0.08,00:09:38
2025-10-11 08:01:39,0.16,-0.22,1.07,-5.27,6.38,0.11,00:09:39
2025-10-11 08:01:39,0.14,-0.2,0.94,-2.92,6.24,0.01,00:09:39
2025-10-11 08:01:39,0.15,-0.22,1.05,-5.4,6.33,0.04,00:09:40
2025-10-11 08:01:39,0.13,-0.2,0.97,-2.18,6.26,0.19,00:09:40
2025-10-11 08:01:39,0.14,-0.19,0.96,-0.95,6.3,0.1,00:09:41
2025-10-11 08:01:40,0.15,-0.2,1.06,-4.76,6.3,0.05,00:09:41
2025-10-11 08:01:40,0.15,-0.2,1.06,-4.4,6.29,0.04,00:09:42
2025-10-11 08:01:40,0.16,-0.2,0.94,-0.84,6.26,0.12,00:09:42
2025-10-11 08:01:40,0.14,-0.19,1.06,-3.78,6.26,0.03,00:09:43
2025-10-11 08:01:40,0.13,-0.21,0.96,0.47,6.21,0.04,00:09:43
2025-10-11 08:01:40,0.16,-0.21,0.99,1.29,6.38,0.08,00:09:44
2025-10-11 08:01:40,0.15,-0.21,1.08,-3.54,6.38,0.06,00:09:44
2025-10-11 08:01:40,0.17,-0.19,0.96,2.43,6.21,0.06,00:09:45
2025-10-11 08:01:40,0.13,-0.22,1.04,-2.71,6.24,0.12,00:09:45
2025-10-11 08:01:40,0.16,-0.21,0.99,3.55,6.36,0.14,00:09:46
2025-10-11 08:01:40,0.17,-0.22,1.06,-1.76,6.33,0.11,00:09:46
2025-10-11 08:01:40,0.14,-0.2,0.97,3.92,6.27,0.03,00:09:47
2025-10-11 08:01:41,0.14,-0.2,1.04,-0.61,6.36,0.13,00:09:47
2025-10-11 08:01:41,0.15,-0.2,0.98,4.92,6.23,0.17,00:09:48
2025-10-11 08:01:41,0.17,-0.21,1.04,-0.48,6.24,0.07,00:09:48
2025-10-11 08:01:41,0.14,-0.22,1.04,0.63,6.37,0.12,00:09:49
2025-10-11 08:01:41,0.15,-0.21,1.01,5.13,6.29,0.01,00:09:49
2025-10-11 08:01:41,0.15,-0.19,0.99,4.53,6.34,0.14,00:09:50
2025-10-11 08:01:41,0.15,-0.19,1.05,1.72,6.23,0.11,00:09:50
2025-10-11 08:01:41,0.17,-0.19,1.03,2.31,6.37,0.14,00:09:51
2025-10-11 08:01:41,0.13,-0.19,1.0,5.38,6.4,0.14,00:09:51
2025-10-11 08:01:41,0.17,-0.19,0.99,5.08,6.38,0.14,00:09:52
2025-10-11 08:01:41,0.16,-0.19,1.01,4.02,6.3,0.19,00:09:52
2025-10-11 08:01:42,0.15,-0.2,1.02,3.91,6.33,0.02,00:09:53
2025-10-11 08:01:42,0.16,-0.21,1.0,4.06,6.29,0.04,00:09:53
2025-10-11 08:01:42,0.14,-0.21,1.03,3.86,6.39,0.14,00:09:54
2025-10-11 08:01:42,0.14,-0.18,1.0,4.76,6.29,0.05,00:09:54
2025-10-11 08:01:42,0.14,-0.2,1.01,2.88,6.35,0.1,00:09:55
2025-10-11 08:01:42,0.16,-0.2,1.01,4.53,6.23,0.08,00:09:55
2025-10-11 08:01:42,0.15,-0.18,1.02,2.22,6.25,0.13,00:09:56
2025-10-11 08:01:42,0.15,-0.19,1.02,5.13,6.29,0.04,00:09:56
2025-10-11 08:01:42,0.15,-0.21,1.04,1.25,6.25,0.11,00:09:57
2025-10-11 08:01:42,0.17,-0.2,1.0,4.46,6.32,0.1,00:09:57
2025-10-11 08:01:42,0.13,-0.21,1.03,0.42,6.25,0.01,00:09:58
2025-10-11 08:01:42,0.16,-0.21,0.98,4.46,6.28,0.12,00:09:58
2025-10-11 08:01:43,0.16,-0.21,0.98,3.95,6.26,0.19,00:09:59
2025-10-11 08:01:43,0.16,-0.21,1.03,-0.8,6.27,0.04,00:09:59
2025-10-11 08:01:43,0.14,-0.21,1.03,-2.38,6.27,0.07,00:10:00
2025-10-11 08:01:43,0.17,-0.22,0.98,3.11,6.2,0.15,00:10:00
2025-10-11 08:01:43,0.13,-0.19,1.05,-2.83,6.25,0.07,00:10:01
2025-10-11 08:01:43,0.14,-0.19,0.98,2.35,6.22,0.17,00:10:01
2025-10-11 08:01:43,0.15,-0.2,1.04,-3.53,6.38,0.05,00:10:02
2025-10-11 08:01:43,0.13,-0.18,0.98,1.39,6.33,0.19,00:10:02
2025-10-11 08:01:43,0.16,-0.19,1.04,-3.95,6.31,0.02,00:10:03
2025-10-11 08:01:43,0.16,-0.18,0.96,0.37,6.27,0.05,00:10:03
2025-10-11 08:01:43,0.14,-0.19,1.08,-5.05,6.34,0.09,00:10:04
2025-10-11 08:01:44,0.15,-0.2,0.97,0.16,6.22,0.14,00:10:04
2025-10-11 08:01:44,0.17,-0.18,1.07,-4.6,6.35,0.18,00:10:05
2025-10-11 08:01:44,0.17,-0.21,0.95,-1.6,6.21,0.1,00:10:05
2025-10-11 08:01:44,0.13,-0.2,0.93,-1.81,6.33,0.06,00:10:06
2025-10-11 08:01:44,0.14,-0.19,1.05,-4.65,6.3,0.19,00:10:06
2025-10-11 08:01:44,0.15,-0.18,0.95,-2.98,6.38,0.07,00:10:07
2025-10-11 08:01:44,0.17,-0.2,1.09,-4.56,6.39,0.13,00:10:07
2025-10-11 08:01:44,0.13,-0.22,0.94,-3.63,6.3,0.04,00:10:08
2025-10-11 08:01:44,0.15,-0.2,1.08,-4.8,6.36,0.1,00:10:08
2025-10-11 08:01:44,0.17,-0.18,0.92,-3.91,6.35,0.17,00:10:09
2025-10-11 08:01:44,0.14,-0.19,1.06,-4.12,6.36,0.19,00:10:09
2025-10-11 08:01:44,0.16,-0.19,0.92,-5.09,6.27,0.04,00:10:10
2025-10-11 08:01:45,0.15,-0.21,1.08,-2.85,6.23,0.18,00:10:10
2025-10-11 08:01:45,0.14,-0.2,0.91,-4.87,6.4,0.02,00:10:11
2025-10-11 08:01:45,0.17,-0.21,1.09,-2.92,6.22,0.2,00:10:11
2025-10-11 08:01:45,0.15,-0.18,1.1,-1.74,6.34,0.16,00:10:12
2025-10-11 08:01:45,0.14,-0.18,0.94,-5.09,6.37,0.19,00:10:12
2025-10-11 08:01:45,0.15,-0.19,1.08,-0.69,6.39,0.06,00:10:13
2025-10-11 08:01:45,0.17,-0.2,0.94,-4.93,6.31,0.14,00:10:13
2025-10-11 08:01:45,0.16,-0.21,0.91,-4.06,6.38,0.12,00:10:14
2025-10-11 08:01:45,0.16,-0.2,1.1,0.15,6.24,0.16,00:10:14
2025-10-11 08:01:45,0.15,-0.18,1.08,1.76,6.22,0.07,00:10:15
2025-10-11 08:01:45,0.15,-0.21,0.93,-3.35,6.31,0.12,00:10:15
2025-10-11 08:01:46,0.16,-0.2,0.9,-3.22,6.34,0.09,00:10:16
2025-10-11 08:01:46,0.15,-0.19,1.11,2.32,6.33,0.12,00:10:16
2025-10-11 08:01:46,0.15,-0.21,0.9,-2.42,6.28,0.16,00:10:17
2025-10-11 08:01:46,0.13,-0.2,1.1,3.22,6.27,0.15,00:10:17
2025-10-11 08:01:46,0.15,-0.18,0.9,-1.21,6.37,0.12,00:10:18
2025-10-11 08:01:46,0.13,-0.21,1.09,4.03,6.2,0.08,00:10:18
2025-10-11 08:01:46,0.13,-0.22,0.9,0.2,6.37,0.01,00:10:19
2025-10-11 08:01:46,0.15,-0.19,1.11,4.07,6.35,0.09,00:10:19
2025-10-11 08:01:46,0.16,-0.22,0.92,0.72,6.28,0.02,00:10:20
2025-10-11 08:01:46,0.15,-0.19,1.08,4.75,6.35,0.15,00:10:20
2025-10-11 08:01:46,0.17,-0.21,1.11,4.88,6.37,0.04,00:10:21
2025-10-11 08:01:46,0.14,-0.2,0.9,2.07,6.4,0.05,00:10:21
2025-10-11 08:01:47,0.16,-0.19,0.9,3.09,6.32,0.03,00:10:22
2025-10-11 08:01:47,0.14,-0.21,1.09,4.73,6.28,0.05,00:10:22
2025-10-11 08:01:47,0.16,-0.18,0.91,3.87,6.28,0.12,00:10:23
2025-10-11 08:01:47,0.14,-0.19,1.1,4.43,6.22,0.13,00:10:23
2025-10-11 08:01:47,0.16,-0.2,1.08,3.96,6.37,0.1,00:10:24
2025-10-11 08:01:47,0.15,-0.19,0.92,3.84,6.31,0.16,00:10:24
2025-10-11 08:01:47,0.14,-0.18,0.91,4.27,6.21,0.16,00:10:25
2025-10-11 08:01:47,0.13,-0.22,1.12,3.68,6.32,0.05,00:10:25
2025-10-11 08:01:47,0.16,-0.21,1.09,3.3,6.28,0.14,00:10:26
2025-10-11 08:01:47,0.15,-0.2,0.91,5.06,6.22,0.14,00:10:26
2025-10-11 08:01:47,0.14,-0.2,1.08,2.48,6.23,0.1,00:10:27
2025-10-11 08:01:48,0.16,-0.22,0.9,5.23,6.38,0.02,00:10:27
2025-10-11 08:01:48,0.13,-0.21,1.08,1.42,6.28,0.12,00:10:28
2025-10-11 08:01:48,0.15,-0.2,0.91,4.99,6.4,0.1,00:10:28
2025-10-11 08:01:48,0.17,-0.21,1.09,0.5,6.33,0.15,00:10:29
2025-10-11 08:01:48,0.15,-0.2,0.91,4.47,6.37,0.06,00:10:29
2025-10-11 08:01:48,0.13,-0.19,1.07,-0.45,6.22,0.14,00:10:30
2025-10-11 08:01:48,0.14,-0.22,0.89,4.35,6.22,0.03,00:10:30
2025-10-11 08:01:48,0.17,-0.21,1.09,-1.71,6.27,0.03,00:10:31
2025-10-11 08:01:48,0.16,-0.19,0.9,3.56,6.26,0.11,00:10:32
2025-10-11 08:01:48,0.15,-0.19,1.1,-2.94,6.23,0.09,00:10:32
2025-10-11 08:01:48,0.16,-0.22,0.92,2.24,6.2,0.02,00:10:33
2025-10-11 08:01:48,0.13,-0.2,1.07,-2.98,6.28,0.16,00:10:33
2025-10-11 08:01:49,0.14,-0.2,1.07,-3.63,6.33,0.15,00:10:34
2025-10-11 08:01:49,0.17,-0.19,0.92,1.73,6.34,0.02,00:10:34
2025-10-11 08:01:49,0.15,-0.21,1.08,-4.64,6.26,0.15,00:10:35
2025-10-11 08:01:49,0.14,-0.19,0.9,0.51,6.33,0.18,00:10:35
2025-10-11 08:01:49,0.13,-0.19,0.91,-0.02,6.36,0.06,00:10:36
2025-10-11 08:01:49,0.14,-0.18,1.09,-4.66,6.25,0.02,00:10:36
2025-10-11 08:01:49,0.15,-0.21,1.07,-5.31,6.32,0.15,00:10:37
2025-10-11 08:01:49,0.15,-0.19,0.92,-0.77,6.3,0.13,00:10:37
2025-10-11 08:01:49,0.13,-0.21,1.09,-5.32,6.37,0.16,00:10:38
2025-10-11 08:01:49,0.15,-0.2,0.9,-1.73,6.28,0.18,00:10:38
2025-10-11 08:01:49,0.17,-0.2,0.91,-2.69,6.26,0.03,00:10:39
2025-10-11 08:01:50,0.16,-0.22,1.05,-4.9,6.4,0.1,00:10:39
2025-10-11 08:01:50,0.17,-0.2,1.05,-4.44,6.37,0.07,00:10:40
2025-10-11 08:01:50,0.15,-0.21,0.92,-3.63,6.23,0.2,00:10:40
2025-10-11 08:01:50,0.16,-0.22,0.9,-3.8,6.32,0.15,00:10:41
2025-10-11 08:01:50,0.15,-0.21,1.07,-3.91,6.27,0.11,00:10:41
2025-10-11 08:01:50,0.15,-0.18,1.06,-2.36,6.4,0.17,00:10:42
2025-10-11 08:01:50,0.16,-0.22,0.93,-5.15,6.25,0.1,00:10:42
2025-10-11 08:01:50,0.14,-0.19,1.03,-2.07,6.2,0.03,00:10:43
2025-10-11 08:01:50,0.17,-0.21,0.91,-5.39,6.3,0.16,00:10:43
2025-10-11 08:01:50,0.13,-0.19,0.94,-4.6,6.31,0.03,00:10:44
2025-10-11 08:01:50,0.14,-0.19,1.06,-1.03,6.28,0.14,00:10:44
2025-10-11 08:01:50,0.16,-0.21,1.04,0.54,6.26,0.09,00:10:45
2025-10-11 08:01:51,0.14,-0.2,0.92,-4.7,6.32,0.08,00:10:45
2025-10-11 08:01:51,0.13,-0.18,1.02,0.95,6.34,0.1,00:10:46
2025-10-11 08:01:51,0.14,-0.19,0.92,-4.07,6.27,0.1,00:10:46
2025-10-11 08:01:51,0.13,-0.2,1.04,2.54,6.39,0.18,00:10:47
2025-10-11 08:01:51,0.17,-0.2,0.92,-3.94,6.33,0.0,00:10:47
2025-10-11 08:01:51,0.16,-0.2,1.02,3.17,6.3,0.09,00:10:48
2025-10-11 08:01:51,0.17,-0.18,0.94,-3.18,6.2,0.08,00:10:48
2025-10-11 08:01:51,0.17,-0.21,1.03,3.87,6.37,0.1,00:10:49
2025-10-11 08:01:51,0.13,-0.2,0.96,-2.31,6.33,0.18,00:10:49
2025-10-11 08:01:51,0.13,-0.21,0.95,-1.52,6.32,0.1,00:10:50
2025-10-11 08:01:51,0.16,-0.19,1.02,4.23,6.34,0.07,00:10:50
2025-10-11 08:01:52,0.15,-0.19,1.02,4.4,6.22,0.03,00:10:51
2025-10-11 08:01:52,0.15,-0.2,0.95,-0.85,6.37,0.13,00:10:51
2025-10-11 08:01:52,0.15,-0.19,1.0,4.84,6.39,0.13,00:10:52
2025-10-11 08:01:52,0.14,-0.22,0.95,0.83,6.24,0.07,00:10:52
2025-10-11 08:01:52,0.15,-0.19,1.01,4.82,6.21,0.13,00:10:53
2025-10-11 08:01:52,0.16,-0.22,0.95,1.79,6.39,0.09,00:10:53
2025-10-11 08:01:52,0.13,-0.21,0.96,2.5,6.24,0.2,00:10:54
2025-10-11 08:01:52,0.14,-0.19,1.0,4.6,6.28,0.05,00:10:54
2025-10-11 08:01:52,0.15,-0.21,0.99,3.23,6.28,0.01,00:10:55
2025-10-11 08:01:52,0.15,-0.22,1.01,4.14,6.24,0.13,00:10:55
2025-10-11 08:01:52,0.16,-0.2,0.98,3.5,6.22,0.16,00:10:56
2025-10-11 08:01:52,0.13,-0.19,1.0,4.24,6.23,0.05,00:10:56
2025-10-11 08:01:53,0.17,-0.18,0.98,4.91,6.23,0.19,00:10:57
2025-10-11 08:01:53,0.16,-0.19,1.0,2.99,6.34,0.06,00:10:57
2025-10-11 08:01:53,0.17,-0.18,1.01,5.21,6.23,0.14,00:10:58
2025-10-11 08:01:53,0.15,-0.21,0.96,2.1,6.23,0.14,00:10:58
2025-10-11 08:01:53,0.16,-0.21,0.98,4.54,6.23,0.02,00:10:59
2025-10-11 08:01:53,0.16,-0.19,0.96,1.57,6.35,0.09,00:10:59
2025-10-11 08:01:53,0.14,-0.22,0.96,0.58,6.4,0.0,00:11:00
2025-10-11 08:01:53,0.13,-0.2,1.0,4.63,6.33,0.08,00:11:00
2025-10-11 08:01:53,0.14,-0.19,0.96,-0.22,6.36,0.18,00:11:01
2025-10-11 08:01:53,0.16,-0.18,1.01,4.89,6.27,0.19,00:11:01
2025-10-11 08:01:53,0.16,-0.19,0.96,-1.47,6.3,0.02,00:11:02
2025-10-11 08:01:54,0.14,-0.18,1.0,3.98,6.29,0.13,00:11:02
2025-10-11 08:01:54,0.17,-0.2,1.0,3.24,6.36,0.15,00:11:03
2025-10-11 08:01:54,0.16,-0.22,0.94,-2.65,6.23,0.14,00:11:03
2025-10-11 08:01:54,0.14,-0.21,0.96,-3.8,6.32,0.2,00:11:04
2025-10-11 08:01:54,0.14,-0.21,1.03,3.17,6.23,0.08,00:11:04
2025-10-11 08:01:54,0.17,-0.19,0.93,-3.9,6.26,0.07,00:11:05
2025-10-11 08:01:54,0.15,-0.21,1.02,2.47,6.25,0.12,00:11:05
2025-10-11 08:01:54,0.17,-0.21,1.04,1.36,6.31,0.1,00:11:06
2025-10-11 08:01:54,0.16,-0.2,0.94,-4.79,6.38,0.05,00:11:06
2025-10-11 08:01:54,0.14,-0.2,0.92,-5.24,6.23,0.19,00:11:07
2025-10-11 08:01:54,0.13,-0.22,1.05,0.15,6.34,0.09,00:11:07
2025-10-11 08:01:54,0.14,-0.2,1.04,-1.04,6.22,0.01,00:11:08
2025-10-11 08:01:55,0.16,-0.18,0.92,-5.0,6.3,0.2,00:11:08
2025-10-11 08:01:55,0.14,-0.22,1.03,-2.21,6.24,0.19,00:11:09
2025-10-11 08:01:55,0.15,-0.21,0.92,-5.26,6.34,0.04,00:11:09
2025-10-11 08:01:55,0.13,-0.2,0.93,-4.74,6.27,0.07,00:11:10
2025-10-11 08:01:55,0.15,-0.21,1.05,-2.69,6.3,0.0,00:11:10
2025-10-11 08:01:55,0.13,-0.19,0.93,-3.84,6.34,0.05,00:11:11
2025-10-11 08:01:55,0.17,-0.22,1.07,-3.56,6.22,0.04,00:11:11
2025-10-11 08:01:55,0.16,-0.22,0.91,-4.06,6.37,0.06,00:11:12
2025-10-11 08:01:55,0.13,-0.21,1.06,-4.34,6.31,0.13,00:11:12
2025-10-11 08:01:55,0.13,-0.19,0.9,-2.96,6.26,0.18,00:11:13
2025-10-11 08:01:55,0.14,-0.21,1.05,-4.71,6.35,0.0,00:11:13
2025-10-11 08:01:56,0.15,-0.21,0.91,-2.31,6.32,0.08,00:11:14
2025-10-11 08:01:56,0.16,-0.22,1.05,-5.04,6.21,0.04,00:11:14
2025-10-11 08:01:56,0.14,-0.19,0.91,-1.45,6.29,0.05,00:11:15
2025-10-11 08:01:56,0.16,-0.21,1.06,-5.31,6.35,0.06,00:11:15
2025-10-11 08:01:56,0.13,-0.2,0.9,-0.36,6.33,0.11,00:11:16
2025-10-11 08:01:56,0.14,-0.18,1.06,-4.99,6.31,0.05,00:11:16
2025-10-11 08:01:56,0.17,-0.19,0.91,0.97,6.22,0.15,00:11:17
2025-10-11 08:01:56,0.14,-0.21,1.07,-5.04,6.3,0.1,00:11:17
2025-10-11 08:01:56,0.15,-0.18,1.07,-3.91,6.21,0.09,00:11:18
2025-10-11 08:01:56,0.13,-0.19,0.91,1.58,6.37,0.13,00:11:18
2025-10-11 08:01:56,0.16,-0.19,0.89,2.4,6.36,0.11,00:11:19
2025-10-11 08:01:56,0.15,-0.22,1.09,-3.85,6.28,0.09,00:11:19
2025-10-11 08:01:57,0.17,-0.21,0.88,3.8,6.32,0.12,00:11:20
2025-10-11 08:01:57,0.15,-0.21,1.1,-2.22,6.24,0.01,00:11:20
2025-10-11 08:01:57,0.14,-0.21,1.11,-1.32,6.38,0.17,00:11:21
2025-10-11 08:01:57,0.15,-0.19,0.89,3.78,6.3,0.11,00:11:21
2025-10-11 08:01:57,0.16,-0.21,1.09,-0.65,6.22,0.11,00:11:22
2025-10-11 08:01:57,0.17,-0.18,0.91,4.22,6.29,0.03,00:11:22
2025-10-11 08:01:57,0.17,-0.19,1.11,0.25,6.25,0.06,00:11:23
2025-10-11 08:01:57,0.15,-0.2,0.92,4.65,6.34,0.16,00:11:23
2025-10-11 08:01:57,0.15,-0.21,1.1,1.34,6.31,0.02,00:11:24
2025-10-11 08:01:57,0.17,-0.21,0.9,5.31,6.33,0.15,00:11:24
2025-10-11 08:01:57,0.16,-0.22,1.1,1.85,6.38,0.12,00:11:25
2025-10-11 08:01:58,0.15,-0.22,0.89,4.43,6.28,0.03,00:11:25
2025-10-11 08:01:58,0.15,-0.22,1.11,3.04,6.38,0.11,00:11:26
2025-10-11 08:01:58,0.17,-0.18,0.92,4.09,6.29,0.01,00:11:26
2025-10-11 08:01:58,0.15,-0.18,1.1,3.72,6.21,0.0,00:11:27
2025-10-11 08:01:58,0.16,-0.2,0.9,4.33,6.4,0.02,00:11:27
2025-10-11 08:01:58,0.14,-0.18,0.89,3.29,6.33,0.17,00:11:28
2025-10-11 08:01:58,0.15,-0.19,1.12,4.3,6.38,0.16,00:11:28
2025-10-11 08:01:58,0.17,-0.21,1.12,5.1,6.31,0.01,00:11:29
2025-10-11 08:01:58,0.16,-0.18,0.89,2.92,6.34,0.03,00:11:29
2025-10-11 08:01:58,0.16,-0.21,0.92,1.99,6.28,0.09,00:11:30
2025-10-11 08:01:58,0.15,-0.2,1.09,5.41,6.34,0.01,00:11:30
2025-10-11 08:01:58,0.14,-0.22,0.91,0.41,6.29,0.05,00:11:31
2025-10-11 08:01:59,0.13,-0.18,1.11,5.27,6.36,0.11,00:11:31
2025-10-11 08:01:59,0.15,-0.19,1.11,4.53,6.3,0.02,00:11:32
2025-10-11 08:01:59,0.16,-0.19,0.93,0.06,6.23,0.19,00:11:32
2025-10-11 08:01:59,0.14,-0.19,1.09,3.99,6.2,0.05,00:11:33
2025-10-11 08:01:59,0.15,-0.2,0.91,-1.48,6.24,0.15,00:11:33
2025-10-11 08:01:59,0.17,-0.22,0.89,-2.09,6.34,0.03,00:11:34
2025-10-11 08:01:59,0.15,-0.2,1.08,3.7,6.25,0.12,00:11:34
2025-10-11 08:01:59,0.17,-0.19,1.08,2.58,6.31,0.18,00:11:35
2025-10-11 08:01:59,0.15,-0.21,0.92,-3.32,6.38,0.07,00:11:35
2025-10-11 08:01:59,0.17,-0.2,1.11,2.36,6.27,0.15,00:11:36
2025-10-11 08:01:59,0.15,-0.21,0.91,-4.07,6.35,0.2,00:11:36
2025-10-11 08:02:00,0.17,-0.19,1.1,1.24,6.28,0.14,00:11:37
2025-10-11 08:02:00,0.14,-0.2,1.1,-0.17,6.35,0.18,00:11:38
2025-10-11 08:02:00,0.13,-0.21,0.93,-4.64,6.29,0.07,00:11:38
2025-10-11 08:02:00,0.15,-0.2,0.94,-4.58,6.29,0.16,00:11:39
2025-10-11 08:02:00,0.15,-0.2,1.07,-1.0,6.38,0.03,00:11:39
2025-10-11 08:02:00,0.15,-0.2,0.92,-5.43,6.38,0.09,00:11:40
2025-10-11 08:02:00,0.14,-0.19,1.11,-2.03,6.34,0.03,00:11:40
2025-10-11 08:02:00,0.15,-0.2,1.1,-2.26,6.32,0.15,00:11:41
2025-10-11 08:02:00,0.14,-0.21,0.95,-5.11,6.26,0.01,00:11:41
2025-10-11 08:02:00,0.16,-0.2,1.08,-3.22,6.38,0.0,00:11:42
2025-10-11 08:02:00,0.16,-0.19,0.94,-4.27,6.39,0.14,00:11:42
2025-10-11 08:02:00,0.14,-0.2,1.07,-3.77,6.38,0.11,00:11:43
2025-10-11 08:02:01,0.15,-0.21,0.93,-3.82,6.39,0.13,00:11:43
2025-10-11 08:02:01,0.16,-0.21,1.08,-5.06,6.31,0.14,00:11:44
2025-10-11 08:02:01,0.13,-0.21,0.96,-4.01,6.21,0.14,00:11:44
2025-10-11 08:02:01,0.16,-0.22,1.08,-5.33,6.39,0.2,00:11:45
2025-10-11 08:02:01,0.14,-0.19,0.94,-2.66,6.32,0.19,00:11:45
2025-10-11 08:02:01,0.14,-0.2,1.06,-5.17,6.32,0.19,00:11:46
2025-10-11 08:02:01,0.15,-0.19,0.95,-2.43,6.31,0.14,00:11:46
2025-10-11 08:02:01,0.14,-0.2,0.95,-0.85,6.31,0.12,00:11:47
2025-10-11 08:02:01,0.15,-0.18,1.06,-5.19,6.26,0.1,00:11:47
2025-10-11 08:02:01,0.13,-0.2,1.08,-4.15,6.22,0.03,00:11:48
2025-10-11 08:02:01,0.14,-0.18,0.94,-0.36,6.25,0.03,00:11:48
2025-10-11 08:02:02,0.13,-0.22,1.04,-4.19,6.33,0.2,00:11:49
2025-10-11 08:02:02,0.16,-0.19,0.97,1.01,6.33,0.1,00:11:49
2025-10-11 08:02:02,0.13,-0.2,0.99,2.02,6.23,0.07,00:11:50
2025-10-11 08:02:02,0.13,-0.19,1.05,-3.74,6.29,0.12,00:11:50
2025-10-11 08:02:02,0.14,-0.21,1.05,-2.75,6.24,0.05,00:11:51
2025-10-11 08:02:02,0.16,-0.19,0.99,2.91,6.36,0.06,00:11:51
2025-10-11 08:02:02,0.17,-0.21,0.96,3.01,6.21,0.06,00:11:52
2025-10-11 08:02:02,0.15,-0.22,1.06,-1.76,6.26,0.05,00:11:52
2025-10-11 08:02:02,0.13,-0.21,0.97,3.94,6.32,0.02,00:11:53
2025-10-11 08:02:02,0.16,-0.18,1.02,-1.25,6.21,0.12,00:11:53
2025-10-11 08:02:02,0.14,-0.19,1.03,0.12,6.38,0.09,00:11:54
2025-10-11 08:02:02,0.13,-0.21,1.0,4.7,6.36,0.11,00:11:54
2025-10-11 08:02:03,0.15,-0.19,1.0,4.88,6.22,0.09,00:11:55
2025-10-11 08:02:03,0.14,-0.2,1.03,1.53,6.4,0.1,00:11:55
2025-10-11 08:02:03,0.13,-0.2,1.02,4.56,6.22,0.05,00:11:56
2025-10-11 08:02:03,0.14,-0.21,1.01,2.02,6.24,0.14,00:11:56
2025-10-11 08:02:03,0.14,-0.19,1.02,4.77,6.34,0.18,00:11:57
2025-10-11 08:02:03,0.15,-0.21,1.04,2.5,6.28,0.05,00:11:57
2025-10-11 08:02:03,0.15,-0.18,1.01,3.37,6.34,0.09,00:11:58
2025-10-11 08:02:03,0.15,-0.2,1.03,4.91,6.22,0.14,00:11:58
2025-10-11 08:02:03,0.15,-0.19,1.03,4.07,6.22,0.16,00:11:59
2025-10-11 08:02:03,0.16,-0.18,1.01,3.96,6.28,0.15,00:11:59
2025-10-11 08:02:03,0.14,-0.21,1.0,4.78,6.27,0.02,00:12:00
2025-10-11 08:02:04,0.13,-0.19,1.03,3.31,6.36,0.14,00:12:00
2025-10-11 08:02:04,0.15,-0.19,1.03,2.4,6.32,0.02,00:12:01
2025-10-11 08:02:04,0.17,-0.21,1.01,5.11,6.22,0.13,00:12:01
2025-10-11 08:02:04,0.14,-0.2,1.03,2.0,6.38,0.14,00:12:02
2025-10-11 08:02:04,0.15,-0.19,1.0,5.28,6.32,0.07,00:12:02
2025-10-11 08:02:04,0.16,-0.21,1.03,0.99,6.3,0.01,00:12:03
2025-10-11 08:02:04,0.15,-0.2,1.0,4.74,6.31,0.02,00:12:03
2025-10-11 08:02:04,0.13,-0.2,1.04,-0.58,6.2,0.15,00:12:04
2025-10-11 08:02:04,0.16,-0.19,0.98,4.48,6.32,0.18,00:12:04
2025-10-11 08:02:04,0.15,-0.19,1.02,-0.95,6.37,0.13,00:12:05
2025-10-11 08:02:04,0.15,-0.2,0.99,4.35,6.31,0.04,00:12:05
2025-10-11 08:02:04,0.17,-0.22,0.96,3.68,6.36,0.15,00:12:06
2025-10-11 08:02:05,0.14,-0.2,1.05,-2.17,6.23,0.01,00:12:06
2025-10-11 08:02:05,0.17,-0.22,1.04,-3.5,6.3,0.18,00:12:07
2025-10-11 08:02:05,0.14,-0.21,0.96,2.76,6.36,0.16,00:12:07
2025-10-11 08:02:05,0.14,-0.21,0.97,1.72,6.38,0.01,00:12:08
2025-10-11 08:02:05,0.13,-0.2,1.05,-3.92,6.22,0.07,00:12:08
2025-10-11 08:02:05,0.14,-0.22,1.05,-4.48,6.27,0.06,00:12:09
2025-10-11 08:02:05,0.13,-0.2,0.97,-0.03,6.36,0.04,00:12:09
2025-10-11 08:02:05,0.15,-0.21,1.08,-5.1,6.32,0.17,00:12:10
2025-10-11 08:02:05,0.15,-0.18,0.96,-0.35,6.27,0.01,00:12:10
2025-10-11 08:02:05,0.13,-0.2,1.09,-5.08,6.23,0.18,00:12:11
2025-10-11 08:02:05,0.16,-0.2,0.97,-1.12,6.29,0.08,00:12:11
2025-10-11 08:02:06,0.14,-0.19,1.06,-5.13,6.28,0.04,00:12:12
2025-10-11 08:02:06,0.16,-0.2,0.95,-2.02,6.3,0.05,00:12:12
2025-10-11 08:02:06,0.13,-0.21,0.93,-3.17,6.34,0.07,00:12:13
2025-10-11 08:02:06,0.15,-0.2,1.06,-5.15,6.2,0.0,00:12:13
2025-10-11 08:02:06,0.14,-0.18,1.07,-4.9,6.34,0.09,00:12:14
2025-10-11 08:02:06,0.14,-0.19,0.92,-3.8,6.28,0.03,00:12:14
2025-10-11 08:02:06,0.16,-0.2,0.95,-4.94,6.32,0.14,00:12:15
2025-10-11 08:02:06,0.15,-0.21,1.1,-3.57,6.39,0.17,00:12:15
2025-10-11 08:02:06,0.17,-0.21,1.09,-3.49,6.2,0.12,00:12:16
2025-10-11 08:02:06,0.15,-0.22,0.93,-5.0,6.35,0.04,00:12:16
2025-10-11 08:02:06,0.15,-0.21,1.11,-1.83,6.26,0.09,00:12:17
2025-10-11 08:02:06,0.17,-0.2,0.94,-5.41,6.29,0.2,00:12:17
2025-10-11 08:02:07,0.13,-0.19,1.08,-1.17,6.29,0.08,00:12:18
2025-10-11 08:02:07,0.15,-0.18,0.94,-4.96,6.34,0.09,00:12:18
2025-10-11 08:02:07,0.16,-0.22,1.11,-0.32,6.34,0.19,00:12:19
2025-10-11 08:02:07,0.14,-0.2,0.92,-4.63,6.24,0.09,00:12:19
2025-10-11 08:02:07,0.16,-0.18,0.9,-4.51,6.25,0.02,00:12:20
2025-10-11 08:02:07,0.15,-0.22,1.1,0.16,6.28,0.07,00:12:20
2025-10-11 08:02:07,0.15,-0.18,1.1,1.6,6.34,0.14,00:12:21
2025-10-11 08:02:07,0.15,-0.22,0.93,-3.42,6.31,0.08,00:12:21
2025-10-11 08:02:07,0.17,-0.21,1.1,2.79,6.31,0.13,00:12:22
2025-10-11 08:02:07,0.14,-0.21,0.9,-2.88,6.35,0.11,00:12:22
2025-10-11 08:02:07,0.15,-0.19,1.11,3.46,6.32,0.01,00:12:23
2025-10-11 08:02:07,0.16,-0.2,0.9,-2.05,6.39,0.07,00:12:23
2025-10-11 08:02:08,0.14,-0.21,0.92,-1.1,6.24,0.01,00:12:24
2025-10-11 08:02:08,0.16,-0.2,1.11,3.62,6.24,0.07,00:12:24
2025-10-11 08:02:08,0.17,-0.21,1.09,4.48,6.25,0.07,00:12:25
2025-10-11 08:02:08,0.14,-0.19,0.91,-0.11,6.23,0.16,00:12:25
2025-10-11 08:02:08,0.14,-0.2,0.89,1.11,6.26,0.08,00:12:26
2025-10-11 08:02:08,0.13,-0.22,1.11,5.02,6.2,0.19,00:12:26
2025-10-11 08:02:08,0.13,-0.21,0.92,1.57,6.37,0.14,00:12:27
2025-10-11 08:02:08,0.14,-0.19,1.09,4.67,6.22,0.15,00:12:27
2025-10-11 08:02:08,0.17,-0.19,1.12,5.37,6.28,0.02,00:12:28
2025-10-11 08:02:08,0.14,-0.22,0.89,2.46,6.27,0.03,00:12:28
2025-10-11 08:02:08,0.15,-0.22,0.92,3.15,6.25,0.14,00:12:29
2025-10-11 08:02:09,0.13,-0.19,1.11,4.34,6.24,0.13,00:12:29
2025-10-11 08:02:09,0.14,-0.2,1.08,4.4,6.37,0.19,00:12:30
2025-10-11 08:02:09,0.14,-0.2,0.9,3.99,6.34,0.15,00:12:30
2025-10-11 08:02:09,0.14,-0.2,1.11,3.44,6.32,0.01,00:12:31
2025-10-11 08:02:09,0.14,-0.21,0.9,4.72,6.33,0.09,00:12:31
2025-10-11 08:02:09,0.15,-0.21,1.11,2.9,6.29,0.14,00:12:32
2025-10-11 08:02:09,0.15,-0.21,0.91,5.02,6.31,0.01,00:12:32
2025-10-11 08:02:09,0.16,-0.22,0.88,5.47,6.34,0.05,00:12:33
2025-10-11 08:02:09,0.13,-0.2,1.1,1.73,6.28,0.05,00:12:33
2025-10-11 08:02:09,0.16,-0.2,1.11,1.11,6.33,0.08,00:12:34
2025-10-11 08:02:09,0.13,-0.21,0.9,4.47,6.22,0.02,00:12:34
2025-10-11 08:02:09,0.14,-0.19,1.1,-0.08,6.23,0.19,00:12:35
2025-10-11 08:02:10,0.14,-0.21,0.89,4.32,6.2,0.2,00:12:35
2025-10-11 08:02:10,0.15,-0.21,1.11,-1.03,6.35,0.06,00:12:36
2025-10-11 08:02:10,0.16,-0.19,0.89,4.04,6.23,0.16,00:12:36
2025-10-11 08:02:10,0.17,-0.21,0.92,2.9,6.28,0.08,00:12:37
2025-10-11 08:02:10,0.13,-0.21,1.1,-2.05,6.34,0.19,00:12:37
2025-10-11 08:02:10,0.15,-0.22,0.92,2.28,6.23,0.01,00:12:38
2025-10-11 08:02:10,0.17,-0.21,1.08,-3.11,6.31,0.17,00:12:38
2025-10-11 08:02:10,0.15,-0.21,1.08,-3.73,6.25,0.02,00:12:39
2025-10-11 08:02:10,0.17,-0.18,0.92,1.83,6.26,0.09,00:12:39
2025-10-11 08:02:10,0.14,-0.19,0.89,0.93,6.38,0.05,00:12:40
2025-10-11 08:02:10,0.15,-0.19,1.1,-4.49,6.38,0.03,00:12:40
2025-10-11 08:02:11,0.13,-0.2,0.92,-0.85,6.24,0.07,00:12:41
2025-10-11 08:02:11,0.15,-0.19,1.07,-4.65,6.24,0.01,00:12:41
2025-10-11 08:02:11,0.15,-0.21,0.9,-1.41,6.22,0.11,00:12:42
2025-10-11 08:02:11,0.13,-0.21,1.09,-4.46,6.32,0.04,00:12:42
2025-10-11 08:02:11,0.15,-0.22,1.08,-4.96,6.27,0.08,00:12:43
2025-10-11 08:02:11,0.14,-0.19,0.92,-2.63,6.23,0.01,00:12:43
2025-10-11 08:02:11,0.15,-0.18,0.92,-3.55,6.23,0.04,00:12:44
2025-10-11 08:02:11,0.16,-0.18,1.07,-4.79,6.23,0.19,00:12:44
2025-10-11 08:02:11,0.15,-0.18,1.06,-4.55,6.36,0.01,00:12:45
2025-10-11 08:02:11,0.14,-0.21,0.93,-3.39,6.31,0.08,00:12:45
2025-10-11 08:02:11,0.15,-0.18,0.93,-4.28,6.28,0.1,00:12:46
2025-10-11 08:02:11,0.15,-0.19,1.04,-4.06,6.23,0.07,00:12:46
2025-10-11 08:02:12,0.14,-0.22,1.05,-3.09,6.29,0.03,00:12:47
2025-10-11 08:02:12,0.15,-0.21,0.93,-4.82,6.28,0.01,00:12:47
2025-10-11 08:02:12,0.15,-0.18,0.93,-5.12,6.22,0.17,00:12:48
2025-10-11 08:02:12,0.17,-0.21,1.06,-2.82,6.21,0.01,00:12:48
2025-10-11 08:02:12,0.14,-0.2,1.03,-1.14,6.25,0.16,00:12:49
2025-10-11 08:02:12,0.17,-0.19,0.92,-5.11,6.31,0.14,00:12:50
2025-10-11 08:02:12,0.16,-0.22,1.06,-0.44,6.32,0.11,00:12:50
2025-10-11 08:02:12,0.16,-0.2,1.05,0.26,6.24,0.07,00:12:51
2025-10-11 08:02:12,0.13,-0.21,0.92,-4.55,6.33,0.15,00:12:51
2025-10-11 08:02:12,0.14,-0.21,0.93,-4.59,6.34,0.16,00:12:52
2025-10-11 08:02:12,0.16,-0.19,1.02,1.75,6.23,0.09,00:12:52
2025-10-11 08:02:13,0.15,-0.2,1.04,1.94,6.38,0.2,00:12:53
2025-10-11 08:02:13,0.16,-0.2,0.93,-3.87,6.33,0.16,00:12:53
2025-10-11 08:02:13,0.13,-0.2,1.03,3.48,6.25,0.01,00:12:54
2025-10-11 08:02:13,0.14,-0.22,0.94,-3.32,6.34,0.01,00:12:54
2025-10-11 08:02:13,0.15,-0.21,1.03,3.55,6.3,0.03,00:12:55
2025-10-11 08:02:13,0.15,-0.21,0.96,-2.27,6.35,0.02,00:12:55
2025-10-11 08:02:13,0.14,-0.22,0.97,-1.23,6.31,0.03,00:12:56
2025-10-11 08:02:13,0.13,-0.19,1.0,4.23,6.22,0.01,00:12:56
2025-10-11 08:02:13,0.16,-0.22,1.0,4.35,6.24,0.17,00:12:57
2025-10-11 08:02:13,0.17,-0.19,0.95,-0.01,6.26,0.18,00:12:57
2025-10-11 08:02:13,0.16,-0.2,0.97,0.64,6.3,0.07,00:12:58
2025-10-11 08:02:13,0.15,-0.2,1.0,4.9,6.22,0.09,00:12:58
2025-10-11 08:02:14,0.14,-0.2,1.0,4.98,6.33,0.09,00:12:59
2025-10-11 08:02:14,0.17,-0.22,0.97,2.15,6.3,0.15,00:12:59
2025-10-11 08:02:14,0.17,-0.2,0.97,2.36,6.33,0.12,00:13:00
2025-10-11 08:02:14,0.17,-0.19,1.0,4.42,6.29,0.04,00:13:00
2025-10-11 08:02:14,0.14,-0.19,0.97,3.22,6.2,0.01,00:13:01
2025-10-11 08:02:14,0.14,-0.2,1.0,4.56,6.35,0.12,00:13:01
2025-10-11 08:02:14,0.14,-0.2,0.97,3.57,6.39,0.17,00:13:02
2025-10-11 08:02:14,0.15,-0.21,0.98,3.67,6.21,0.03,00:13:02
2025-10-11 08:02:14,0.15,-0.22,0.98,3.19,6.36,0.04,00:13:03
2025-10-11 08:02:14,0.13,-0.22,1.0,4.42,6.37,0.2,00:13:03
2025-10-11 08:02:14,0.14,-0.18,0.96,1.7,6.2,0.08,00:13:04
2025-10-11 08:02:15,0.15,-0.2,1.0,4.56,6.22,0.17,00:13:04
2025-10-11 08:02:15,0.13,-0.2,0.99,0.68,6.3,0.0,00:13:05
2025-10-11 08:02:15,0.15,-0.21,1.0,4.6,6.29,0.15,00:13:05
2025-10-11 08:02:15,0.15,-0.22,0.96,0.19,6.22,0.06,00:13:06
2025-10-11 08:02:15,0.14,-0.2,1.01,5.18,6.25,0.12,00:13:06
2025-10-11 08:02:15,0.16,-0.19,0.97,-0.71,6.32,0.09,00:13:07
2025-10-11 08:02:15,0.15,-0.19,1.0,4.17,6.32,0.14,00:13:07
2025-10-11 08:02:15,0.16,-0.2,1.03,4.43,6.39,0.17,00:13:08
2025-10-11 08:02:15,0.14,-0.21,0.97,-1.42,6.26,0.15,00:13:08
2025-10-11 08:02:15,0.17,-0.2,0.96,-2.75,6.37,0.18,00:13:09
2025-10-11 08:02:15,0.16,-0.18,1.02,3.91,6.34,0.19,00:13:09
2025-10-11 08:02:15,0.14,-0.21,1.04,2.42,6.31,0.15,00:13:10
2025-10-11 08:02:16,0.15,-0.2,0.93,-3.15,6.37,0.04,00:13:10
2025-10-11 08:02:16,0.14,-0.2,1.04,1.4,6.36,0.01,00:13:11
2025-10-11 08:02:16,0.14,-0.2,0.96,-3.81,6.36,0.1,00:13:11
2025-10-11 08:02:16,0.17,-0.21,1.04,1.01,6.38,0.18,00:13:12
2025-10-11 08:02:16,0.13,-0.21,0.95,-4.66,6.33,0.14,00:13:12
2025-10-11 08:02:16,0.13,-0.2,1.03,-0.14,6.3,0.18,00:13:13
2025-10-11 08:02:16,0.14,-0.18,0.92,-4.76,6.3,0.1,00:13:13
2025-10-11 08:02:16,0.16,-0.2,1.04,-1.23,6.3,0.09,00:13:14
2025-10-11 08:02:16,0.16,-0.21,0.94,-4.87,6.21,0.15,00:13:14
2025-10-11 08:02:16,0.14,-0.18,1.06,-2.11,6.22,0.16,00:13:15
2025-10-11 08:02:16,0.16,-0.2,0.94,-5.01,6.28,0.08,00:13:15
2025-10-11 08:02:17,0.15,-0.18,1.05,-2.87,6.38,0.03,00:13:16
2025-10-11 08:02:17,0.15,-0.19,0.91,-4.12,6.24,0.11,00:13:16
2025-10-11 08:02:17,0.15,-0.2,1.07,-3.5,6.3,0.19,00:13:17
2025-10-11 08:02:17,0.14,-0.19,0.91,-3.81,6.4,0.06,00:13:17
2025-10-11 08:02:17,0.15,-0.18,1.06,-4.59,6.2,0.1,00:13:18
2025-10-11 08:02:17,0.16,-0.19,0.91,-3.69,6.24,0.07,00:13:18
2025-10-11 08:02:17,0.14,-0.2,1.07,-4.41,6.38,0.01,00:13:19
2025-10-11 08:02:17,0.15,-0.2,0.9,-2.72,6.32,0.01,00:13:19
2025-10-11 08:02:17,0.17,-0.2,1.07,-4.91,6.33,0.05,00:13:20
2025-10-11 08:02:17,0.17,-0.21,0.93,-1.4,6.23,0.16,00:13:20
2025-10-11 08:02:17,0.16,-0.19,0.92,-1.14,6.38,0.1,00:13:21
2025-10-11 08:02:17,0.14,-0.2,1.09,-5.25,6.3,0.11,00:13:21
2025-10-11 08:02:18,0.17,-0.22,0.9,0.64,6.34,0.07,00:13:22
2025-10-11 08:02:18,0.16,-0.19,1.07,-5.01,6.26,0.19,00:13:22
2025-10-11 08:02:18,0.15,-0.21,0.89,1.05,6.27,0.16,00:13:23
2025-10-11 08:02:18,0.15,-0.22,1.07,-4.26,6.37,0.07,00:13:23
2025-10-11 08:02:18,0.13,-0.21,1.07,-4.36,6.29,0.19,00:13:24
2025-10-11 08:02:18,0.14,-0.2,0.89,2.48,6.39,0.15,00:13:24
2025-10-11 08:02:18,0.15,-0.21,1.1,-3.17,6.37,0.11,00:13:25
2025-10-11 08:02:18,0.14,-0.21,0.91,3.4,6.24,0.16,00:13:25
2025-10-11 08:02:18,0.13,-0.2,1.11,-2.68,6.35,0.09,00:13:26
2025-10-11 08:02:18,0.14,-0.22,0.9,3.32,6.31,0.19,00:13:26
2025-10-11 08:02:18,0.16,-0.2,1.08,-1.44,6.26,0.12,00:13:27
2025-10-11 08:02:19,0.14,-0.21,0.9,4.05,6.37,0.17,00:13:27
2025-10-11 08:02:19,0.14,-0.19,1.08,0.01,6.22,0.03,00:13:28
2025-10-11 08:02:19,0.16,-0.18,0.9,4.9,6.35,0.03,00:13:28
2025-10-11 08:02:19,0.17,-0.19,1.09,0.39,6.3,0.05,00:13:29
2025-10-11 08:02:19,0.13,-0.21,0.91,4.8,6.24,0.1,00:13:29
2025-10-11 08:02:19,0.15,-0.19,1.1,1.61,6.29,0.18,00:13:30
2025-10-11 08:02:19,0.13,-0.21,0.92,5.36,6.34,0.17,00:13:30
2025-10-11 08:02:19,0.16,-0.2,1.11,2.3,6.24,0.12,00:13:31
2025-10-11 08:02:19,0.15,-0.2,0.91,4.73,6.36,0.06,00:13:31
2025-10-11 08:02:19,0.14,-0.18,0.92,4.8,6.26,0.16,00:13:32
2025-10-11 08:02:19,0.14,-0.18,1.08,3.82,6.37,0.08,00:13:32
2025-10-11 08:02:19,0.16,-0.2,1.1,3.77,6.34,0.06,00:13:33
2025-10-11 08:02:20,0.17,-0.19,0.91,3.36,6.22,0.15,00:13:33
2025-10-11 08:02:20,0.17,-0.21,0.9,3.03,6.3,0.12,00:13:34
2025-10-11 08:02:20,0.15,-0.19,1.11,4.22,6.39,0.06,00:13:34
2025-10-11 08:02:20,0.16,-0.22,0.89,2.14,6.3,0.05,00:13:35
2025-10-11 08:02:20,0.15,-0.2,1.11,5.34,6.29,0.03,00:13:35
2025-10-11 08:02:20,0.16,-0.22,0.89,1.77,6.33,0.06,00:13:36
2025-10-11 08:02:20,0.13,-0.21,1.11,5.15,6.37,0.18,00:13:36
2025-10-11 08:02:20,0.13,-0.19,0.89,0.45,6.38,0.05,00:13:37
2025-10-11 08:02:20,0.13,-0.2,1.11,4.96,6.39,0.03,00:13:37
2025-10-11 08:02:20,0.17,-0.2,0.9,-0.69,6.29,0.05,00:13:38
2025-10-11 08:02:20,0.15,-0.22,1.1,4.52,6.31,0.15,00:13:38
2025-10-11 08:02:21,0.13,-0.21,1.09,4.64,6.25,0.07,00:13:39
2025-10-11 08:02:21,0.13,-0.22,0.91,-1.8,6.22,0.01,00:13:39
2025-10-11 08:02:21,0.15,-0.21,0.91,-2.23,6.33,0.19,00:13:40
2025-10-11 08:02:21,0.15,-0.21,1.1,3.66,6.3,0.04,00:13:40
2025-10-11 08:02:21,0.15,-0.2,0.9,-3.52,6.27,0.01,00:13:41
2025-10-11 08:02:21,0.14,-0.2,1.11,2.39,6.28,0.1,00:13:41
2025-10-11 08:02:21,0.14,-0.21,1.11,1.65,6.29,0.07,00:13:42
2025-10-11 08:02:21,0.14,-0.19,0.93,-3.82,6.32,0.02,00:13:42
2025-10-11 08:02:21,0.14,-0.18,0.93,-4.06,6.31,0.13,00:13:43
2025-10-11 08:02:21,0.16,-0.18,1.11,0.61,6.33,0.06,00:13:43
2025-10-11 08:02:21,0.15,-0.18,0.93,-5.28,6.32,0.1,00:13:44
2025-10-11 08:02:21,0.15,-0.2,1.11,-0.33,6.4,0.08,00:13:44
2025-10-11 08:02:22,0.15,-0.19,0.92,-5.24,6.31,0.13,00:13:45
2025-10-11 08:02:22,0.13,-0.19,1.09,-0.85,6.36,0.19,00:13:45
2025-10-11 08:02:22,0.16,-0.18,0.91,-4.52,6.33,0.02,00:13:46
2025-10-11 08:02:22,0.17,-0.2,1.1,-1.54,6.39,0.13,00:13:46
2025-10-11 08:02:22,0.14,-0.19,1.1,-2.92,6.33,0.14,00:13:47
2025-10-11 08:02:22,0.14,-0.2,0.93,-4.62,6.38,0.04,00:13:47
2025-10-11 08:02:22,0.14,-0.19,1.08,-3.65,6.24,0.04,00:13:48
2025-10-11 08:02:22,0.15,-0.19,0.95,-4.14,6.24,0.01,00:13:48
2025-10-11 08:02:22,0.16,-0.18,0.96,-3.73,6.24,0.06,00:13:49
2025-10-11 08:02:22,0.17,-0.21,1.09,-4.05,6.22,0.03,00:13:49
2025-10-11 08:02:22,0.14,-0.21,1.06,-4.68,6.24,0.13,00:13:50
2025-10-11 08:02:23,0.17,-0.21,0.96,-2.77,6.23,0.15,00:13:50
2025-10-11 08:02:23,0.13,-0.21,0.94,-2.4,6.36,0.01,00:13:51
2025-10-11 08:02:23,0.13,-0.2,1.09,-4.72,6.26,0.15,00:13:51
2025-10-11 08:02:23,0.16,-0.2,1.06,-5.45,6.36,0.01,00:13:52
2025-10-11 08:02:23,0.17,-0.19,0.94,-1.41,6.24,0.03,00:13:52
2025-10-11 08:02:23,0.16,-0.19,0.96,-0.21,6.32,0.14,00:13:53
2025-10-11 08:02:23,0.16,-0.21,1.05,-5.02,6.25,0.05,00:13:53
2025-10-11 08:02:23,0.16,-0.2,0.95,0.57,6.27,0.05,00:13:54
2025-10-11 08:02:23,0.16,-0.21,1.07,-4.55,6.23,0.05,00:13:54
2025-10-11 08:02:23,0.17,-0.19,0.99,2.48,6.38,0.15,00:13:55
2025-10-11 08:02:23,0.15,-0.22,1.04,-3.88,6.27,0.07,00:13:55
2025-10-11 08:02:23,0.17,-0.18,0.99,3.25,6.23,0.04,00:13:56
2025-10-11 08:02:24,0.15,-0.21,1.05,-3.45,6.39,0.12,00:13:56
2025-10-11 08:02:24,0.14,-0.19,1.06,-1.99,6.35,0.01,00:13:57
2025-10-11 08:02:24,0.16,-0.2,1.03,-1.38,6.36,0.05,00:13:58
2025-10-11 08:02:24,0.16,-0.2,0.99,3.91,6.21,0.08,00:13:58
2025-10-11 08:02:24,0.15,-0.2,1.03,-0.73,6.33,0.05,00:13:59
2025-10-11 08:02:24,0.13,-0.21,1.0,4.31,6.27,0.2,00:13:59
2025-10-11 08:02:24,0.16,-0.2,1.04,0.52,6.36,0.19,00:14:00
2025-10-11 08:02:24,0.14,-0.2,1.0,4.24,6.38,0.03,00:14:00
2025-10-11 08:02:24,0.13,-0.22,1.02,1.32,6.29,0.02,00:14:01
2025-10-11 08:02:24,0.13,-0.19,1.0,5.44,6.39,0.03,00:14:01
2025-10-11 08:02:24,0.16,-0.18,1.0,4.77,6.25,0.08,00:14:02
2025-10-11 08:02:25,0.15,-0.19,1.01,2.15,6.38,0.14,00:14:02
2025-10-11 08:02:25,0.14,-0.2,1.01,3.57,6.29,0.07,00:14:03
2025-10-11 08:02:25,0.14,-0.2,1.0,4.63,6.28,0.02,00:14:03
2025-10-11 08:02:25,0.16,-0.21,1.02,4.77,6.34,0.05,00:14:04
2025-10-11 08:02:25,0.13,-0.2,1.01,4.25,6.28,0.08,00:14:04
2025-10-11 08:02:25,0.15,-0.2,1.04,4.32,6.25,0.07,00:14:05
2025-10-11 08:02:25,0.14,-0.18,1.02,4.61,6.38,0.11,00:14:05
2025-10-11 08:02:25,0.16,-0.2,1.0,4.57,6.32,0.03,00:14:06
2025-10-11 08:02:25,0.17,-0.2,1.02,3.64,6.38,0.03,00:14:06
2025-10-11 08:02:25,0.16,-0.19,1.01,5.05,6.36,0.1,00:14:07
2025-10-11 08:02:25,0.14,-0.21,1.02,2.65,6.36,0.05,00:14:07
2025-10-11 08:02:25,0.15,-0.19,1.01,1.87,6.33,0.2,00:14:08
2025-10-11 08:02:26,0.15,-0.19,1.01,4.5,6.38,0.14,00:14:08
2025-10-11 08:02:26,0.13,-0.2,1.0,4.63,6.36,0.14,00:14:09
2025-10-11 08:02:26,0.14,-0.18,1.02,0.92,6.29,0.05,00:14:09
2025-10-11 08:02:26,0.17,-0.19,1.04,-0.17,6.25,0.0,00:14:10
2025-10-11 08:02:26,0.13,-0.22,0.97,4.27,6.22,0.03,00:14:10
2025-10-11 08:02:26,0.15,-0.22,1.03,-1.58,6.32,0.06,00:14:11
2025-10-11 08:02:26,0.16,-0.19,0.98,3.44,6.28,0.17,00:14:11
2025-10-11 08:02:26,0.15,-0.19,1.03,-2.14,6.28,0.17,00:14:12
2025-10-11 08:02:26,0.16,-0.19,0.96,3.22,6.34,0.16,00:14:12
2025-10-11 08:02:26,0.13,-0.21,1.07,-2.86,6.39,0.06,00:14:13
2025-10-11 08:02:26,0.17,-0.19,0.98,1.87,6.23,0.15,00:14:13
2025-10-11 08:02:27,0.14,-0.22,1.06,-4.41,6.36,0.1,00:14:14
2025-10-11 08:02:27,0.16,-0.19,0.96,0.86,6.22,0.1,00:14:14
2025-10-11 08:02:27,0.14,-0.21,0.95,-0.02,6.37,0.1,00:14:15
2025-10-11 08:02:27,0.17,-0.19,1.05,-4.0,6.26,0.16,00:14:15
2025-10-11 08:02:27,0.13,-0.19,1.06,-5.12,6.26,0.06,00:14:16
2025-10-11 08:02:27,0.13,-0.2,0.95,-0.43,6.33,0.11,00:14:16
2025-10-11 08:02:27,0.17,-0.21,1.07,-5.28,6.28,0.04,00:14:17
2025-10-11 08:02:27,0.16,-0.18,0.96,-1.41,6.3,0.01,00:14:17
2025-10-11 08:02:27,0.15,-0.19,1.07,-4.74,6.39,0.13,00:14:18
2025-10-11 08:02:27,0.15,-0.2,0.93,-2.23,6.39,0.06,00:14:18
2025-10-11 08:02:27,0.15,-0.2,0.95,-3.01,6.22,0.08,00:14:19
2025-10-11 08:02:27,0.16,-0.2,1.09,-4.51,6.2,0.17,00:14:19
2025-10-11 08:02:28,0.16,-0.21,1.07,-4.27,6.37,0.0,00:14:20
2025-10-11 08:02:28,0.14,-0.21,0.94,-4.22,6.2,0.05,00:14:20
2025-10-11 08:02:28,0.15,-0.22,1.07,-3.33,6.34,0.11,00:14:21
2025-10-11 08:02:28,0.15,-0.19,0.92,-4.99,6.22,0.17,00:14:21
2025-10-11 08:02:28,0.17,-0.21,1.07,-3.09,6.39,0.19,00:14:22
2025-10-11 08:02:28,0.14,-0.2,0.93,-4.99,6.3,0.08,00:14:22
2025-10-11 08:02:28,0.17,-0.18,1.08,-1.68,6.35,0.17,00:14:23
2025-10-11 08:02:28,0.17,-0.21,0.94,-5.4,6.22,0.07,00:14:23
2025-10-11 08:02:28,0.14,-0.19,0.93,-4.8,6.36,0.12,00:14:24
2025-10-11 08:02:28,0.14,-0.18,1.07,-1.49,6.33,0.05,00:14:24
2025-10-11 08:02:28,0.13,-0.2,0.92,-4.57,6.36,0.03,00:14:25
2025-10-11 08:02:29,0.14,-0.21,1.1,-0.03,6.23,0.17,00:14:25
2025-10-11 08:02:29,0.16,-0.21,0.92,-4.49,6.39,0.18,00:14:26
2025-10-11 08:02:29,0.15,-0.2,1.09,0.54,6.23,0.14,00:14:26
2025-10-11 08:02:29,0.16,-0.21,0.9,-2.94,6.25,0.05,00:14:27
2025-10-11 08:02:29,0.16,-0.2,1.08,2.03,6.28,0.16,00:14:27
2025-10-11 08:02:29,0.13,-0.22,0.92,-2.94,6.28,0.04,00:14:28
2025-10-11 08:02:29,0.14,-0.19,1.11,3.02,6.24,0.1,00:14:28
2025-10-11 08:02:29,0.14,-0.2,1.1,3.54,6.22,0.04,00:14:29
2025-10-11 08:02:29,0.13,-0.21,0.93,-1.98,6.32,0.13,00:14:29
2025-10-11 08:02:29,0.15,-0.19,1.09,3.89,6.33,0.18,00:14:30
2025-10-11 08:02:29,0.17,-0.21,0.9,-0.28,6.39,0.19,00:14:30
2025-10-11 08:02:29,0.17,-0.22,0.91,-0.02,6.27,0.2,00:14:31
2025-10-11 08:02:30,0.15,-0.2,1.1,4.93,6.3,0.03,00:14:31
2025-10-11 08:02:30,0.13,-0.2,1.1,5.23,6.3,0.08,00:14:32
2025-10-11 08:02:30,0.16,-0.18,0.89,1.19,6.31,0.06,00:14:32
2025-10-11 08:02:30,0.13,-0.19,0.91,1.96,6.28,0.0,00:14:33
2025-10-11 08:02:30,0.17,-0.2,1.1,4.81,6.37,0.11,00:14:33
2025-10-11 08:02:30,0.17,-0.2,1.1,5.11,6.24,0.02,00:14:34
2025-10-11 08:02:30,0.16,-0.21,0.91,3.27,6.31,0.02,00:14:34
2025-10-11 08:02:30,0.14,-0.21,1.08,4.21,6.38,0.03,00:14:35
2025-10-11 08:02:30,0.15,-0.21,0.89,3.48,6.34,0.14,00:14:35
2025-10-11 08:02:30,0.16,-0.19,0.9,4.45,6.28,0.05,00:14:36
2025-10-11 08:02:30,0.14,-0.19,1.09,3.7,6.37,0.01,00:14:36
2025-10-11 08:02:31,0.13,-0.18,0.89,4.69,6.31,0.08,00:14:37
2025-10-11 08:02:31,0.15,-0.2,1.11,3.67,6.33,0.09,00:14:37
2025-10-11 08:02:31,0.17,-0.2,0.89,5.12,6.39,0.17,00:14:38
2025-10-11 08:02:31,0.15,-0.19,1.1,2.98,6.38,0.17,00:14:38
2025-10-11 08:02:31,0.14,-0.21,1.09,1.33,6.27,0.15,00:14:39
2025-10-11 08:02:31,0.15,-0.2,0.88,4.8,6.36,0.05,00:14:39
2025-10-11 08:02:31,0.16,-0.19,0.9,5.16,6.27,0.05,00:14:40
2025-10-11 08:02:31,0.15,-0.2,1.11,0.37,6.26,0.12,00:14:40
2025-10-11 08:02:31,0.15,-0.21,1.08,-0.54,6.27,0.2,00:14:41
2025-10-11 08:02:31,0.15,-0.2,0.9,4.06,6.29,0.13,00:14:41
2025-10-11 08:02:31,0.16,-0.21,1.09,-1.75,6.32,0.15,00:14:42
2025-10-11 08:02:31,0.15,-0.19,0.91,3.61,6.22,0.17,00:14:42
2025-10-11 08:02:32,0.16,-0.2,0.92,2.84,6.3,0.08,00:14:43
2025-10-11 08:02:32,0.14,-0.2,1.1,-2.62,6.34,0.19,00:14:43
2025-10-11 08:02:32,0.16,-0.22,0.89,2.47,6.31,0.14,00:14:44
2025-10-11 08:02:32,0.16,-0.2,1.1,-3.02,6.25,0.18,00:14:44
2025-10-11 08:02:32,0.15,-0.18,0.9,0.88,6.36,0.17,00:14:45
2025-10-11 08:02:32,0.16,-0.18,1.07,-3.68,6.38,0.09,00:14:45
2025-10-11 08:02:32,0.16,-0.19,0.91,0.52,6.29,0.1,00:14:46
2025-10-11 08:02:32,0.15,-0.18,1.07,-4.02,6.22,0.19,00:14:46
2025-10-11 08:02:32,0.15,-0.22,1.07,-4.97,6.23,0.02,00:14:47
2025-10-11 08:02:32,0.16,-0.19,0.93,-1.0,6.34,0.19,00:14:47
2025-10-11 08:02:32,0.13,-0.18,1.08,-5.07,6.27,0.17,00:14:48
2025-10-11 08:02:33,0.16,-0.22,0.91,-1.17,6.35,0.14,00:14:48
2025-10-11 08:02:33,0.15,-0.19,0.91,-2.39,6.33,0.05,00:14:49
2025-10-11 08:02:33,0.14,-0.2,1.09,-4.86,6.25,0.11,00:14:49
2025-10-11 08:02:33,0.15,-0.21,0.91,-2.94,6.38,0.17,00:14:50
2025-10-11 08:02:33,0.16,-0.19,1.05,-4.69,6.39,0.02,00:14:50
2025-10-11 08:02:33,0.15,-0.21,0.9,-3.68,6.37,0.12,00:14:51
2025-10-11 08:02:33,0.15,-0.21,1.04,-4.59,6.29,0.17,00:14:51
2025-10-11 08:02:33,0.14,-0.19,0.93,-4.29,6.29,0.2,00:14:52
2025-10-11 08:02:33,0.15,-0.2,1.06,-3.43,6.25,0.05,00:14:52
2025-10-11 08:02:33,0.17,-0.19,0.92,-4.4,6.26,0.13,00:14:53
2025-10-11 08:02:33,0.13,-0.2,1.07,-2.99,6.21,0.01,00:14:53
2025-10-11 08:02:33,0.16,-0.22,0.91,-4.74,6.28,0.06,00:14:54
2025-10-11 08:02:34,0.17,-0.21,1.05,-2.1,6.29,0.18,00:14:54
2025-10-11 08:02:34,0.16,-0.19,0.91,-4.88,6.32,0.07,00:14:55
2025-10-11 08:02:34,0.16,-0.18,1.05,-1.09,6.22,0.15,00:14:55
2025-10-11 08:02:34,0.14,-0.19,0.95,-4.27,6.22,0.18,00:14:56
2025-10-11 08:02:34,0.16,-0.2,1.02,-0.05,6.2,0.09,00:14:56
2025-10-11 08:02:34,0.15,-0.18,0.95,-4.04,6.39,0.02,00:14:57
2025-10-11 08:02:34,0.16,-0.2,1.05,0.63,6.37,0.05,00:14:57
2025-10-11 08:02:34,0.13,-0.21,1.03,1.55,6.4,0.13,00:14:58
2025-10-11 08:02:34,0.15,-0.19,0.95,-3.52,6.21,0.09,00:14:58
2025-10-11 08:02:34,0.17,-0.2,1.02,3.07,6.25,0.15,00:14:59
2025-10-11 08:02:34,0.17,-0.19,0.94,-3.19,6.26,0.19,00:14:59
2025-10-11 08:02:35,0.15,-0.2,1.02,3.36,6.28,0.04,00:15:00
2025-10-11 08:02:35,0.15,-0.19,0.93,-2.06,6.22,0.04,00:15:00
2025-10-11 08:02:35,0.15,-0.18,0.96,-0.48,6.32,0.18,00:15:01
2025-10-11 08:02:35,0.14,-0.19,1.01,4.54,6.39,0.18,00:15:01
2025-10-11 08:02:35,0.16,-0.2,1.02,4.28,6.38,0.14,00:15:02
2025-10-11 08:02:35,0.16,-0.2,0.96,0.02,6.2,0.1,00:15:03
2025-10-11 08:02:35,0.15,-0.19,1.0,4.71,6.38,0.04,00:15:03
2025-10-11 08:02:35,0.15,-0.22,0.96,1.19,6.22,0.11,00:15:04
2025-10-11 08:02:35,0.16,-0.22,1.02,4.99,6.33,0.14,00:15:04
2025-10-11 08:02:35,0.13,-0.19,0.96,2.04,6.22,0.02,00:15:05
2025-10-11 08:02:35,0.15,-0.2,0.99,5.39,6.28,0.15,00:15:05
2025-10-11 08:02:35,0.15,-0.2,0.98,2.58,6.33,0.02,00:15:06
2025-10-11 08:02:36,0.15,-0.2,0.98,4.9,6.4,0.13,00:15:06
2025-10-11 08:02:36,0.14,-0.18,0.97,3.87,6.2,0.1,00:15:07
2025-10-11 08:02:36,0.15,-0.2,0.97,4.16,6.34,0.1,00:15:07
2025-10-11 08:02:36,0.16,-0.19,0.96,3.7,6.31,0.12,00:15:08
2025-10-11 08:02:36,0.16,-0.2,1.0,4.36,6.26,0.0,00:15:08
2025-10-11 08:02:36,0.15,-0.18,0.98,4.72,6.35,0.12,00:15:09
2025-10-11 08:02:36,0.14,-0.18,0.99,2.71,6.23,0.06,00:15:09
2025-10-11 08:02:36,0.13,-0.19,0.99,5.31,6.38,0.12,00:15:10
2025-10-11 08:02:36,0.16,-0.18,0.97,1.75,6.24,0.15,00:15:10
2025-10-11 08:02:36,0.15,-0.21,0.97,1.03,6.32,0.16,00:15:11
2025-10-11 08:02:36,0.17,-0.22,1.01,5.4,6.37,0.05,00:15:11
2025-10-11 08:02:37,0.14,-0.2,1.02,4.45,6.32,0.06,00:15:12
2025-10-11 08:02:37,0.15,-0.2,0.95,-0.01,6.36,0.05,00:15:12
2025-10-11 08:02:37,0.16,-0.18,0.95,-0.72,6.21,0.1,00:15:13
2025-10-11 08:02:37,0.17,-0.22,1.0,4.07,6.38,0.0,00:15:13
2025-10-11 08:02:37,0.16,-0.19,0.97,-2.02,6.32,0.02,00:15:14
2025-10-11 08:02:37,0.14,-0.19,1.04,4.02,6.3,0.01,00:15:14
2025-10-11 08:02:37,0.15,-0.2,0.96,-2.95,6.34,0.09,00:15:15
2025-10-11 08:02:37,0.16,-0.19,1.01,3.3,6.32,0.19,00:15:15
2025-10-11 08:02:37,0.16,-0.21,1.05,2.69,6.28,0.04,00:15:16
2025-10-11 08:02:37,0.14,-0.19,0.95,-3.76,6.35,0.02,00:15:16
2025-10-11 08:02:37,0.15,-0.22,0.93,-4.57,6.31,0.0,00:15:17
2025-10-11 08:02:37,0.16,-0.2,1.02,1.9,6.36,0.19,00:15:17
2025-10-11 08:02:38,0.16,-0.18,0.92,-4.78,6.3,0.13,00:15:18
2025-10-11 08:02:38,0.17,-0.19,1.04,0.74,6.26,0.14,00:15:18
2025-10-11 08:02:38,0.14,-0.22,0.93,-5.19,6.4,0.19,00:15:19
2025-10-11 08:02:38,0.14,-0.2,1.03,-0.04,6.3,0.06,00:15:19
2025-10-11 08:02:38,0.14,-0.19,0.93,-4.58,6.26,0.09,00:15:20
2025-10-11 08:02:38,0.14,-0.19,1.05,-1.68,6.34,0.18,00:15:20
2025-10-11 08:02:38,0.14,-0.18,0.91,-4.47,6.39,0.15,00:15:21
2025-10-11 08:02:38,0.16,-0.22,1.07,-2.49,6.32,0.2,00:15:21
2025-10-11 08:02:38,0.14,-0.2,1.04,-2.78,6.31,0.17,00:15:22
2025-10-11 08:02:38,0.14,-0.2,0.93,-4.06,6.4,0.01,00:15:22
2025-10-11 08:02:38,0.13,-0.18,1.05,-4.13,6.37,0.13,00:15:23
2025-10-11 08:02:38,0.13,-0.18,0.92,-3.48,6.3,0.01,00:15:23
2025-10-11 08:02:39,0.14,-0.22,0.92,-3.37,6.23,0.15,00:15:24
2025-10-11 08:02:39,0.17,-0.2,1.07,-4.91,6.29,0.02,00:15:24
2025-10-11 08:02:39,0.13,-0.2,1.07,-5.09,6.34,0.17,00:15:25
2025-10-11 08:02:39,0.14,-0.18,0.9,-2.24,6.31,0.19,00:15:25
2025-10-11 08:02:39,0.13,-0.21,0.89,-1.54,6.36,0.04,00:15:26
2025-10-11 08:02:39,0.17,-0.21,1.07,-4.98,6.22,0.02,00:15:26
2025-10-11 08:02:39,0.15,-0.19,0.9,-0.7,6.26,0.08,00:15:27
2025-10-11 08:02:39,0.17,-0.19,1.07,-4.95,6.36,0.05,00:15:27
2025-10-11 08:02:39,0.15,-0.2,0.92,0.73,6.31,0.09,00:15:28
2025-10-11 08:02:39,0.14,-0.2,1.07,-5.13,6.25,0.01,00:15:28
2025-10-11 08:02:39,0.16,-0.18,0.92,1.0,6.35,0.03,00:15:29
2025-10-11 08:02:40,0.15,-0.21,1.09,-4.18,6.23,0.1,00:15:29
2025-10-11 08:02:40,0.15,-0.22,0.91,2.37,6.2,0.06,00:15:30
2025-10-11 08:02:40,0.17,-0.18,1.07,-4.04,6.21,0.04,00:15:30
2025-10-11 08:02:40,0.17,-0.2,0.9,3.2,6.32,0.0,00:15:31
2025-10-11 08:02:40,0.14,-0.21,1.08,-2.85,6.3,0.13,00:15:31
2025-10-11 08:02:40,0.15,-0.2,0.91,3.72,6.34,0.05,00:15:32
2025-10-11 08:02:40,0.14,-0.19,1.11,-1.83,6.39,0.01,00:15:32
2025-10-11 08:02:40,0.14,-0.21,1.09,-1.45,6.39,0.13,00:15:33
2025-10-11 08:02:40,0.13,-0.21,0.91,4.13,6.24,0.16,00:15:33
2025-10-11 08:02:40,0.16,-0.2,1.08,0.04,6.34,0.18,00:15:34
2025-10-11 08:02:40,0.15,-0.19,0.92,5.11,6.34,0.14,00:15:34
2025-10-11 08:02:40,0.13,-0.19,1.11,0.95,6.28,0.12,00:15:35
2025-10-11 08:02:41,0.16,-0.19,0.92,5.46,6.27,0.16,00:15:35
2025-10-11 08:02:41,0.16,-0.18,1.1,1.42,6.36,0.19,00:15:36
2025-10-11 08:02:41,0.16,-0.2,0.9,4.77,6.35,0.16,00:15:36
2025-10-11 08:02:41,0.14,-0.21,1.11,2.39,6.28,0.01,00:15:37
2025-10-11 08:02:41,0.14,-0.19,0.9,5.01,6.22,0.17,00:15:37
2025-10-11 08:02:41,0.16,-0.21,1.11,3.82,6.34,0.15,00:15:38
2025-10-11 08:02:41,0.16,-0.18,0.92,4.06,6.27,0.02,00:15:38
2025-10-11 08:02:41,0.15,-0.22,0.92,3.71,6.35,0.01,00:15:39
2025-10-11 08:02:41,0.16,-0.2,1.1,4.63,6.3,0.15,00:15:39
2025-10-11 08:02:41,0.15,-0.19,1.11,4.69,6.33,0.18,00:15:40
2025-10-11 08:02:41,0.14,-0.22,0.89,3.1,6.25,0.02,00:15:40
2025-10-11 08:02:42,0.15,-0.19,0.89,2.02,6.22,0.19,00:15:41
2025-10-11 08:02:42,0.14,-0.21,1.12,4.53,6.29,0.17,00:15:41
2025-10-11 08:02:42,0.16,-0.18,1.11,5.17,6.28,0.05,00:15:42
2025-10-11 08:02:42,0.17,-0.19,0.9,0.96,6.25,0.05,00:15:42
2025-10-11 08:02:42,0.14,-0.21,0.91,0.29,6.3,0.05,00:15:43
2025-10-11 08:02:42,0.13,-0.22,1.1,5.34,6.29,0.01,00:15:43
2025-10-11 08:02:42,0.16,-0.2,1.1,4.47,6.24,0.13,00:15:44
2025-10-11 08:02:42,0.13,-0.2,0.93,-0.97,6.25,0.0,00:15:44
2025-10-11 08:02:42,0.16,-0.2,1.09,4.13,6.35,0.1,00:15:45
2025-10-11 08:02:42,0.16,-0.18,0.91,-2.16,6.34,0.03,00:15:45
2025-10-11 08:02:42,0.15,-0.2,1.09,3.18,6.31,0.03,00:15:46
2025-10-11 08:02:42,0.16,-0.21,0.91,-2.88,6.35,0.06,00:15:46
2025-10-11 08:02:43,0.14,-0.22,0.9,-3.75,6.23,0.08,00:15:47
2025-10-11 08:02:43,0.14,-0.2,1.1,2.58,6.25,0.01,00:15:47
2025-10-11 08:02:43,0.15,-0.21,0.92,-3.97,6.25,0.0,00:15:48
2025-10-11 08:02:43,0.13,-0.19,1.11,1.61,6.37,0.12,00:15:48
2025-10-11 08:02:43,0.13,-0.2,0.92,-4.24,6.37,0.06,00:15:49
2025-10-11 08:02:43,0.16,-0.21,1.11,0.29,6.2,0.11,00:15:49
2025-10-11 08:02:43,0.17,-0.2,0.94,-5.37,6.21,0.01,00:15:50
2025-10-11 08:02:43,0.15,-0.19,1.09,-0.05,6.31,0.08,00:15:50
2025-10-11 08:02:43,0.14,-0.21,1.11,-0.88,6.37,0.09,00:15:51
2025-10-11 08:02:43,0.15,-0.21,0.92,-5.4,6.24,0.17,00:15:51
2025-10-11 08:02:43,0.15,-0.21,0.92,-4.69,6.36,0.01,00:15:52
2025-10-11 08:02:44,0.15,-0.2,1.07,-2.53,6.22,0.13,00:15:52
2025-10-11 08:02:44,0.14,-0.21,1.07,-2.89,6.35,0.19,00:15:53
2025-10-11 08:02:44,0.14,-0.22,0.96,-4.49,6.21,0.16,00:15:53
2025-10-11 08:02:44,0.14,-0.19,1.09,-4.18,6.33,0.02,00:15:54
2025-10-11 08:02:44,0.13,-0.2,0.92,-3.72,6.38,0.18,00:15:54
2025-10-11 08:02:44,0.14,-0.21,1.09,-4.34,6.2,0.16,00:15:55
2025-10-11 08:02:44,0.16,-0.21,0.94,-3.14,6.26,0.02,00:15:55
2025-10-11 08:02:44,0.14,-0.19,1.06,-5.16,6.31,0.03,00:15:56
2025-10-11 08:02:44,0.16,-0.21,0.94,-2.75,6.37,0.04,00:15:56
2025-10-11 08:02:44,0.15,-0.21,1.07,-5.18,6.4,0.19,00:15:57
2025-10-11 08:02:44,0.15,-0.2,0.96,-1.31,6.31,0.01,00:15:57
2025-10-11 08:02:44,0.14,-0.19,1.05,-4.58,6.21,0.16,00:15:58
2025-10-11 08:02:45,0.15,-0.2,0.95,-0.48,6.23,0.18,00:15:58
2025-10-11 08:02:45,0.17,-0.19,1.07,-4.41,6.37,0.11,00:15:59
2025-10-11 08:02:45,0.14,-0.19,0.97,0.61,6.31,0.19,00:15:59
2025-10-11 08:02:45,0.16,-0.2,0.96,0.94,6.26,0.12,00:16:00
2025-10-11 08:02:45,0.15,-0.2,1.05,-4.8,6.21,0.14,00:16:00
2025-10-11 08:02:45,0.15,-0.21,0.97,1.77,6.25,0.11,00:16:01
2025-10-11 08:02:45,0.16,-0.2,1.05,-4.22,6.37,0.09,00:16:01
2025-10-11 08:02:45,0.17,-0.18,0.96,3.17,6.37,0.17,00:16:02
2025-10-11 08:02:45,0.16,-0.22,1.07,-3.14,6.37,0.09,00:16:02
2025-10-11 08:02:45,0.15,-0.22,0.98,3.62,6.3,0.04,00:16:03
2025-10-11 08:02:45,0.17,-0.2,1.07,-1.78,6.22,0.13,00:16:03
2025-10-11 08:02:46,0.16,-0.19,1.05,-1.16,6.33,0.12,00:16:04
2025-10-11 08:02:46,0.13,-0.21,0.98,3.91,6.28,0.06,00:16:04
2025-10-11 08:02:46,0.17,-0.19,1.03,-0.12,6.31,0.13,00:16:05
2025-10-11 08:02:46,0.15,-0.18,0.98,4.74,6.39,0.03,00:16:05
2025-10-11 08:02:46,0.16,-0.18,1.03,0.21,6.27,0.02,00:16:06
2025-10-11 08:02:46,0.15,-0.2,1.02,5.29,6.27,0.09,00:16:06
2025-10-11 08:02:46,0.16,-0.2,1.04,1.38,6.34,0.11,00:16:07
2025-10-11 08:02:46,0.15,-0.21,1.02,5.16,6.22,0.01,00:16:07
2025-10-11 08:02:46,0.16,-0.2,1.03,2.79,6.27,0.1,00:16:08
2025-10-11 08:02:46,0.17,-0.19,1.01,4.52,6.32,0.09,00:16:08
2025-10-11 08:02:46,0.13,-0.18,1.04,2.98,6.35,0.19,00:16:09
2025-10-11 08:02:46,0.17,-0.2,1.03,3.9,6.39,0.02,00:16:09
2025-10-11 08:02:47,0.14,-0.19,1.03,3.64,6.24,0.01,00:16:10
2025-10-11 08:02:47,0.16,-0.21,1.03,4.37,6.24,0.17,00:16:10
2025-10-11 08:02:47,0.15,-0.2,1.02,3.03,6.21,0.01,00:16:11
2025-10-11 08:02:47,0.14,-0.2,1.01,4.18,6.25,0.16,00:16:11
2025-10-11 08:02:47,0.14,-0.21,1.02,1.79,6.32,0.19,00:16:12
2025-10-11 08:02:47,0.13,-0.2,1.0,5.07,6.23,0.03,00:16:12
2025-10-11 08:02:47,0.16,-0.21,1.01,5.07,6.26,0.08,00:16:13
2025-10-11 08:02:47,0.14,-0.19,1.04,0.99,6.36,0.16,00:16:13
2025-10-11 08:02:47,0.17,-0.19,1.01,4.62,6.29,0.18,00:16:14
2025-10-11 08:02:47,0.14,-0.2,1.02,0.45,6.38,0.05,00:16:15
2025-10-11 08:02:47,0.15,-0.2,1.01,5.04,6.29,0.05,00:16:15
2025-10-11 08:02:48,0.13,-0.22,0.99,4.23,6.31,0.03,00:16:16
2025-10-11 08:02:48,0.17,-0.21,1.04,-1.11,6.28,0.18,00:16:16
2025-10-11 08:02:48,0.13,-0.2,0.97,3.03,6.29,0.03,00:16:17
2025-10-11 08:02:48,0.14,-0.2,1.06,-1.27,6.39,0.03,00:16:17
2025-10-11 08:02:48,0.14,-0.2,0.96,2.65,6.29,0.2,00:16:18
2025-10-11 08:02:48,0.16,-0.2,1.06,-2.2,6.28,0.05,00:16:18
2025-10-11 08:02:48,0.16,-0.18,1.05,-3.76,6.22,0.14,00:16:19
2025-10-11 08:02:48,0.17,-0.2,0.96,1.79,6.27,0.06,00:16:19
2025-10-11 08:02:48,0.17,-0.18,1.07,-3.69,6.33,0.08,00:16:20
2025-10-11 08:02:48,0.14,-0.2,0.96,0.6,6.34,0.06,00:16:20
2025-10-11 08:02:48,0.14,-0.21,0.95,0.22,6.29,0.05,00:16:21
2025-10-11 08:02:48,0.13,-0.2,1.08,-4.21,6.28,0.16,00:16:21
2025-10-11 08:02:49,0.16,-0.21,0.95,-0.94,6.31,0.08,00:16:22
2025-10-11 08:02:49,0.15,-0.21,1.05,-4.42,6.32,0.02,00:16:22
2025-10-11 08:02:49,0.14,-0.21,1.06,-4.63,6.33,0.05,00:16:23
2025-10-11 08:02:49,0.16,-0.21,0.96,-2.51,6.23,0.19,00:16:23
2025-10-11 08:02:49,0.13,-0.19,0.97,-3.27,6.31,0.2,00:16:24
2025-10-11 08:02:49,0.17,-0.2,1.09,-4.94,6.35,0.06,00:16:24
2025-10-11 08:02:49,0.17,-0.21,1.08,-4.85,6.38,0.09,00:16:25
2025-10-11 08:02:49,0.16,-0.21,0.95,-3.19,6.36,0.08,00:16:25
2025-10-11 08:02:49,0.14,-0.2,0.95,-4.59,6.28,0.09,00:16:26
2025-10-11 08:02:49,0.17,-0.2,1.08,-4.58,6.36,0.06,00:16:26
2025-10-11 08:02:49,0.16,-0.21,0.95,-4.22,6.39,0.08,00:16:27
2025-10-11 08:02:50,0.13,-0.22,1.1,-3.69,6.25,0.07,00:16:27
2025-10-11 08:02:50,0.15,-0.22,0.95,-4.73,6.21,0.16,00:16:28
2025-10-11 08:02:50,0.16,-0.2,1.1,-2.36,6.2,0.15,00:16:28
2025-10-11 08:02:50,0.16,-0.19,1.1,-1.56,6.25,0.13,00:16:29
2025-10-11 08:02:50,0.15,-0.19,0.91,-5.43,6.35,0.09,00:16:29
2025-10-11 08:02:50,0.16,-0.22,0.91,-4.97,6.27,0.08,00:16:30
2025-10-11 08:02:50,0.15,-0.18,1.1,-0.46,6.36,0.19,00:16:30
2025-10-11 08:02:50,0.15,-0.18,1.11,0.37,6.34,0.12,00:16:31
2025-10-11 08:02:50,0.16,-0.2,0.92,-4.14,6.23,0.19,00:16:31
2025-10-11 08:02:50,0.15,-0.21,1.1,1.24,6.34,0.18,00:16:32
2025-10-11 08:02:50,0.13,-0.2,0.91,-3.6,6.38,0.12,00:16:32
2025-10-11 08:02:50,0.15,-0.19,0.9,-3.43,6.26,0.15,00:16:33
2025-10-11 08:02:51,0.17,-0.19,1.08,2.03,6.27,0.15,00:16:33
